Setup.started,Setup.stopped,participant,session,date,expName,psychopyVersion,OS,frameRate,AFC_instructions.started,AFC_instructions.stopped,AFC_practice_instructions.started,AFC_practice_instructions.stopped,AFC_practice_fixation.started,AFC_practice_fixation.stopped,AFC_practice_trial.started,AFC_practice_trial.stopped,afc_prac_left_image,afc_prac_right_image,afc_prac_chosen_side,afc_prac_responded,afc_prac_loop.thisRepN,afc_prac_loop.thisTrialN,afc_prac_loop.thisN,afc_prac_loop.thisIndex,afc_prac_loop.ran,AFC_block_start.started,AFC_block_start.stopped,AFC_fixation.started,AFC_fixation.stopped,AFC_trial.started,AFC_trial.stopped,afc_block,afc_left_food_item,afc_right_food_item,afc_left_image,afc_right_image,afc_left_category,afc_right_category,afc_left_cond,afc_right_cond,afc_chosen_side,afc_chosen_food_item,afc_rt,afc_responded,afc_trial_loop.thisRepN,afc_trial_loop.thisTrialN,afc_trial_loop.thisN,afc_trial_loop.thisIndex,afc_trial_loop.ran,AFC_break.started,AFC_break.stopped,Bye.started,Bye.stopped
0.006,0.0061,052224,001,2026-03-27_14h03.15.253,AFC,2024.2.4,MacIntel,59.88023952,,,,,,,,,,,,,,,,,,,,,,,,,,,,,,,,,,,,,,,,,,,,,
,,052224,001,2026-03-27_14h03.15.253,AFC,2024.2.4,MacIntel,59.88023952,0.0062,0.6853,,,,,,,,,,,,,,,,,,,,,,,,,,,,,,,,,,,,,,,,,,,
,,052224,001,2026-03-27_14h03.15.253,AFC,2024.2.4,MacIntel,59.88023952,,,0.6856,1.5525,,,,,,,,,,,,,,,,,,,,,,,,,,,,,,,,,,,,,,,,,
,,052224,001,2026-03-27_14h03.15.253,AFC,2024.2.4,MacIntel,59.88023952,,,,,1.555,2.0524,2.0529,3.2356,Practice_pictures/Practice_brocoli.png,Practice_pictures/Practice_sushi.png,right,1,0,0,0,0,1,,,,,,,,,,,,,,,,,,,,,,,,,,,,
,,052224,001,2026-03-27_14h03.15.253,AFC,2024.2.4,MacIntel,59.88023952,,,,,3.2396,3.8181,3.8184,4.6354,Practice_pictures/Practice_kiwi.png,Practice_pictures/Practice_cake.png,right,1,1,0,1,0,1,,,,,,,,,,,,,,,,,,,,,,,,,,,,
,,052224,001,2026-03-27_14h03.15.253,AFC,2024.2.4,MacIntel,59.88023952,,,,,4.6359,5.4023,5.4025,6.1856,Practice_pictures/Practice_kiwi.png,Practice_pictures/Practice_sushi.png,right,1,2,0,2,0,1,,,,,,,,,,,,,,,,,,,,,,,,,,,,
,,052224,001,2026-03-27_14h03.15.253,AFC,2024.2.4,MacIntel,59.88023952,,,,,6.1861,6.5523,6.5526,7.4188,Practice_pictures/Practice_brocoli.png,Practice_pictures/Practice_cake.png,right,1,3,0,3,0,1,,,,,,,,,,,,,,,,,,,,,,,,,,,,
,,052224,001,2026-03-27_14h03.15.253,AFC,2024.2.4,MacIntel,59.88023952,,,,,,,,,,,,,,,,,,7.4212,9.3857,9.3861,10.0191,10.0209,10.9861,1,15,22,Items_pictures/15_flute.png,Items_pictures/22_veg_pizza.png,2,3,1,1,right,22,0.4629,1,0,0,0,0,1,,,,
,,052224,001,2026-03-27_14h03.15.253,AFC,2024.2.4,MacIntel,59.88023952,,,,,,,,,,,,,,,,,,,,,,10.9869,11.6688,1,6,13,Items_pictures/6_strawberries.png,Items_pictures/13_crisps.png,1,2,0,1,left,6,0.1816,1,1,0,1,0,1,,,,
,,052224,001,2026-03-27_14h03.15.253,AFC,2024.2.4,MacIntel,59.88023952,,,,,,,,,,,,,,,,,,,,,,11.6697,12.2857,1,5,6,Items_pictures/5_bell_pepper.png,Items_pictures/6_strawberries.png,1,1,1,0,right,6,0.1154,1,2,0,2,0,1,,,,
,,052224,001,2026-03-27_14h03.15.253,AFC,2024.2.4,MacIntel,59.88023952,,,,,,,,,,,,,,,,,,,,,,12.2864,12.9353,1,44,42,Items_pictures/44_chocolate_snack.png,Items_pictures/42_chocolate_snack.png,5,5,0,0,left,44,0.1488,1,3,0,3,0,1,,,,
,,052224,001,2026-03-27_14h03.15.253,AFC,2024.2.4,MacIntel,59.88023952,,,,,,,,,,,,,,,,,,,,,,12.9361,13.47,1,13,20,Items_pictures/13_crisps.png,Items_pictures/20_tortillas.png,2,2,1,1,right,20,0.0324,1,4,0,4,0,1,,,,
,,052224,001,2026-03-27_14h03.15.253,AFC,2024.2.4,MacIntel,59.88023952,,,,,,,,,,,,,,,,,,,,,,13.4704,14.0017,1,28,15,Items_pictures/28_veg_burger.png,Items_pictures/15_flute.png,3,2,1,1,left,28,0.0312,1,5,0,5,0,1,,,,
,,052224,001,2026-03-27_14h03.15.253,AFC,2024.2.4,MacIntel,59.88023952,,,,,,,,,,,,,,,,,,,,,,14.0021,14.5523,1,6,43,Items_pictures/6_strawberries.png,Items_pictures/43_chocolate_snack.png,1,5,0,0,right,43,0.0328,1,6,0,6,0,1,,,,
,,052224,001,2026-03-27_14h03.15.253,AFC,2024.2.4,MacIntel,59.88023952,,,,,,,,,,,,,,,,,,,,,,14.553,15.0686,1,30,28,Items_pictures/30_onion_rings.png,Items_pictures/28_veg_burger.png,3,3,1,1,left,30,2.38412E-10,1,7,0,7,0,1,,,,
,,052224,001,2026-03-27_14h03.15.253,AFC,2024.2.4,MacIntel,59.88023952,,,,,,,,,,,,,,,,,,,,,,15.0693,15.5846,1,20,9,Items_pictures/20_tortillas.png,Items_pictures/9_healthy_cracker.png,2,1,1,1,right,9,0.0147,1,8,0,8,0,1,,,,
,,052224,001,2026-03-27_14h03.15.253,AFC,2024.2.4,MacIntel,59.88023952,,,,,,,,,,,,,,,,,,,,,,15.5854,16.2186,1,34,53,Items_pictures/34_donuts.png,Items_pictures/53_ice_cream.png,4,6,0,0,left,34,0.133,1,9,0,9,0,1,,,,
,,052224,001,2026-03-27_14h03.15.253,AFC,2024.2.4,MacIntel,59.88023952,,,,,,,,,,,,,,,,,,,,,,16.2192,16.7352,1,20,15,Items_pictures/20_tortillas.png,Items_pictures/15_flute.png,2,2,1,1,right,15,-0.0002,1,10,0,10,0,1,,,,
,,052224,001,2026-03-27_14h03.15.253,AFC,2024.2.4,MacIntel,59.88023952,,,,,,,,,,,,,,,,,,,,,,16.7359,17.252,1,53,30,Items_pictures/53_ice_cream.png,Items_pictures/30_onion_rings.png,6,3,0,1,left,53,9.99999E-05,1,11,0,11,0,1,,,,
,,052224,001,2026-03-27_14h03.15.253,AFC,2024.2.4,MacIntel,59.88023952,,,,,,,,,,,,,,,,,,,,,,17.2528,17.7683,1,9,18,Items_pictures/9_healthy_cracker.png,Items_pictures/18_popcorn.png,1,2,1,1,right,18,0,1,12,0,12,0,1,,,,
,,052224,001,2026-03-27_14h03.15.253,AFC,2024.2.4,MacIntel,59.88023952,,,,,,,,,,,,,,,,,,,,,,17.7689,18.2852,1,56,39,Items_pictures/56_macaron.png,Items_pictures/39_muffin.png,6,4,0,0,left,56,-9.99999E-05,1,13,0,13,0,1,,,,
,,052224,001,2026-03-27_14h03.15.253,AFC,2024.2.4,MacIntel,59.88023952,,,,,,,,,,,,,,,,,,,,,,18.2858,19.2353,1,37,6,Items_pictures/37_pain_chocolat.png,Items_pictures/6_strawberries.png,4,1,0,0,left,37,0.4494,1,14,0,14,0,1,,,,
,,052224,001,2026-03-27_14h03.15.253,AFC,2024.2.4,MacIntel,59.88023952,,,,,,,,,,,,,,,,,,,,,,19.236,19.752,1,30,15,Items_pictures/30_onion_rings.png,Items_pictures/15_flute.png,3,2,1,1,right,15,3.55271E-15,1,15,0,15,0,1,,,,
,,052224,001,2026-03-27_14h03.15.253,AFC,2024.2.4,MacIntel,59.88023952,,,,,,,,,,,,,,,,,,,,,,19.7525,20.2686,1,39,6,Items_pictures/39_muffin.png,Items_pictures/6_strawberries.png,4,1,0,0,left,39,-3.55271E-15,1,16,0,16,0,1,,,,
,,052224,001,2026-03-27_14h03.15.253,AFC,2024.2.4,MacIntel,59.88023952,,,,,,,,,,,,,,,,,,,,,,20.2691,20.7855,1,36,37,Items_pictures/36_pretzel.png,Items_pictures/37_pain_chocolat.png,4,4,1,0,right,37,3.55271E-15,1,17,0,17,0,1,,,,
,,052224,001,2026-03-27_14h03.15.253,AFC,2024.2.4,MacIntel,59.88023952,,,,,,,,,,,,,,,,,,,,,,20.7861,21.5853,1,42,53,Items_pictures/42_chocolate_snack.png,Items_pictures/53_ice_cream.png,5,6,0,0,right,53,0.2983,1,18,0,18,0,1,,,,
,,052224,001,2026-03-27_14h03.15.253,AFC,2024.2.4,MacIntel,59.88023952,,,,,,,,,,,,,,,,,,,,,,21.5859,22.1019,1,30,6,Items_pictures/30_onion_rings.png,Items_pictures/6_strawberries.png,3,1,1,0,left,30,-9.99997E-05,1,19,0,19,0,1,,,,
,,052224,001,2026-03-27_14h03.15.253,AFC,2024.2.4,MacIntel,59.88023952,,,,,,,,,,,,,,,,,,,,,,22.1024,22.619,1,39,18,Items_pictures/39_muffin.png,Items_pictures/18_popcorn.png,4,2,0,1,right,18,-3.55271E-15,1,20,0,20,0,1,,,,
,,052224,001,2026-03-27_14h03.15.253,AFC,2024.2.4,MacIntel,59.88023952,,,,,,,,,,,,,,,,,,,,,,22.6195,23.3854,1,20,22,Items_pictures/20_tortillas.png,Items_pictures/22_veg_pizza.png,2,3,1,1,right,22,0.2656,1,21,0,21,0,1,,,,
,,052224,001,2026-03-27_14h03.15.253,AFC,2024.2.4,MacIntel,59.88023952,,,,,,,,,,,,,,,,,,,,,,23.386,23.9521,1,1,37,Items_pictures/1_apple.png,Items_pictures/37_pain_chocolat.png,1,4,0,0,left,1,0.0657,1,22,0,22,0,1,,,,
,,052224,001,2026-03-27_14h03.15.253,AFC,2024.2.4,MacIntel,59.88023952,,,,,,,,,,,,,,,,,,,,,,23.9527,24.4682,1,22,6,Items_pictures/22_veg_pizza.png,Items_pictures/6_strawberries.png,3,1,1,0,right,6,-3.55271E-15,1,23,0,23,0,1,,,,
,,052224,001,2026-03-27_14h03.15.253,AFC,2024.2.4,MacIntel,59.88023952,,,,,,,,,,,,,,,,,,,,,,24.4688,24.9853,1,37,43,Items_pictures/37_pain_chocolat.png,Items_pictures/43_chocolate_snack.png,4,5,0,0,left,37,-0.0001,1,24,0,24,0,1,,,,
,,052224,001,2026-03-27_14h03.15.253,AFC,2024.2.4,MacIntel,59.88023952,,,,,,,,,,,,,,,,,,,,,,24.9858,25.5017,1,39,60,Items_pictures/39_muffin.png,Items_pictures/60_cupcake.png,4,6,0,0,right,60,0.0002,1,25,0,25,0,1,,,,
,,052224,001,2026-03-27_14h03.15.253,AFC,2024.2.4,MacIntel,59.88023952,,,,,,,,,,,,,,,,,,,,,,25.5023,26.0852,1,30,55,Items_pictures/30_onion_rings.png,Items_pictures/55_creme_brulee.png,3,6,1,0,left,30,0.0827,1,26,0,26,0,1,,,,
,,052224,001,2026-03-27_14h03.15.253,AFC,2024.2.4,MacIntel,59.88023952,,,,,,,,,,,,,,,,,,,,,,26.0859,26.8186,1,18,5,Items_pictures/18_popcorn.png,Items_pictures/5_bell_pepper.png,2,1,1,1,right,5,0.2326,1,27,0,27,0,1,,,,
,,052224,001,2026-03-27_14h03.15.253,AFC,2024.2.4,MacIntel,59.88023952,,,,,,,,,,,,,,,,,,,,,,26.8191,27.3351,1,30,36,Items_pictures/30_onion_rings.png,Items_pictures/36_pretzel.png,3,4,1,1,left,30,0,1,28,0,28,0,1,,,,
,,052224,001,2026-03-27_14h03.15.253,AFC,2024.2.4,MacIntel,59.88023952,,,,,,,,,,,,,,,,,,,,,,27.3354,28.1021,1,43,53,Items_pictures/43_chocolate_snack.png,Items_pictures/53_ice_cream.png,5,6,0,0,right,53,0.2498,1,29,0,29,0,1,,,,
,,052224,001,2026-03-27_14h03.15.253,AFC,2024.2.4,MacIntel,59.88023952,,,,,,,,,,,,,,,,,,,,,,28.1027,28.7187,1,41,36,Items_pictures/41_chocolate_snack.png,Items_pictures/36_pretzel.png,5,4,0,1,left,41,0.1157,1,30,0,30,0,1,,,,
,,052224,001,2026-03-27_14h03.15.253,AFC,2024.2.4,MacIntel,59.88023952,,,,,,,,,,,,,,,,,,,,,,28.7192,29.2352,1,15,60,Items_pictures/15_flute.png,Items_pictures/60_cupcake.png,2,6,1,0,right,60,-3.55271E-15,1,31,0,31,0,1,,,,
,,052224,001,2026-03-27_14h03.15.253,AFC,2024.2.4,MacIntel,59.88023952,,,,,,,,,,,,,,,,,,,,,,29.2357,29.7518,1,56,13,Items_pictures/56_macaron.png,Items_pictures/13_crisps.png,6,2,0,1,left,56,0,1,32,0,32,0,1,,,,
,,052224,001,2026-03-27_14h03.15.253,AFC,2024.2.4,MacIntel,59.88023952,,,,,,,,,,,,,,,,,,,,,,29.7525,30.268,1,1,25,Items_pictures/1_apple.png,Items_pictures/25_fries.png,1,3,0,1,right,25,9.99999E-05,1,33,0,33,0,1,,,,
,,052224,001,2026-03-27_14h03.15.253,AFC,2024.2.4,MacIntel,59.88023952,,,,,,,,,,,,,,,,,,,,,,30.2685,31.0855,1,44,18,Items_pictures/44_chocolate_snack.png,Items_pictures/18_popcorn.png,5,2,0,1,right,18,0.3165,1,34,0,34,0,1,,,,
,,052224,001,2026-03-27_14h03.15.253,AFC,2024.2.4,MacIntel,59.88023952,,,,,,,,,,,,,,,,,,,,,,31.0861,31.6185,1,25,55,Items_pictures/25_fries.png,Items_pictures/55_creme_brulee.png,3,6,1,0,left,25,0.0323,1,35,0,35,0,1,,,,
,,052224,001,2026-03-27_14h03.15.253,AFC,2024.2.4,MacIntel,59.88023952,,,,,,,,,,,,,,,,,,,,,,31.6192,32.1352,1,25,36,Items_pictures/25_fries.png,Items_pictures/36_pretzel.png,3,4,1,1,right,36,2.38423E-10,1,36,0,36,0,1,,,,
,,052224,001,2026-03-27_14h03.15.253,AFC,2024.2.4,MacIntel,59.88023952,,,,,,,,,,,,,,,,,,,,,,32.1359,32.6519,1,60,22,Items_pictures/60_cupcake.png,Items_pictures/22_veg_pizza.png,6,3,0,1,left,60,0,1,37,0,37,0,1,,,,
,,052224,001,2026-03-27_14h03.15.253,AFC,2024.2.4,MacIntel,59.88023952,,,,,,,,,,,,,,,,,,,,,,32.6525,33.5355,1,18,36,Items_pictures/18_popcorn.png,Items_pictures/36_pretzel.png,2,4,1,1,left,18,0.3819,1,38,0,38,0,1,,,,
,,052224,001,2026-03-27_14h03.15.253,AFC,2024.2.4,MacIntel,59.88023952,,,,,,,,,,,,,,,,,,,,,,33.5363,34.0522,1,43,13,Items_pictures/43_chocolate_snack.png,Items_pictures/13_crisps.png,5,2,0,1,right,13,0.0001,1,39,0,39,0,1,,,,
,,052224,001,2026-03-27_14h03.15.253,AFC,2024.2.4,MacIntel,59.88023952,,,,,,,,,,,,,,,,,,,,,,34.0528,34.6018,1,15,53,Items_pictures/15_flute.png,Items_pictures/53_ice_cream.png,2,6,1,0,left,15,0.0486,1,40,0,40,0,1,,,,
,,052224,001,2026-03-27_14h03.15.253,AFC,2024.2.4,MacIntel,59.88023952,,,,,,,,,,,,,,,,,,,,,,34.6024,35.1189,1,5,36,Items_pictures/5_bell_pepper.png,Items_pictures/36_pretzel.png,1,4,1,1,right,36,0.0001,1,41,0,41,0,1,,,,
,,052224,001,2026-03-27_14h03.15.253,AFC,2024.2.4,MacIntel,59.88023952,,,,,,,,,,,,,,,,,,,,,,35.1193,35.7185,1,30,41,Items_pictures/30_onion_rings.png,Items_pictures/41_chocolate_snack.png,3,5,1,0,left,30,0.0824,1,42,0,42,0,1,,,,
,,052224,001,2026-03-27_14h03.15.253,AFC,2024.2.4,MacIntel,59.88023952,,,,,,,,,,,,,,,,,,,,,,35.7191,37.2346,1,43,15,Items_pictures/43_chocolate_snack.png,Items_pictures/15_flute.png,5,2,0,1,none,none,,0,43,0,43,0,1,,,,
,,052224,001,2026-03-27_14h03.15.253,AFC,2024.2.4,MacIntel,59.88023952,,,,,,,,,,,,,,,,,,,,,,37.7357,39.2519,1,5,53,Items_pictures/5_bell_pepper.png,Items_pictures/53_ice_cream.png,1,6,1,0,none,none,,0,44,0,44,0,1,,,,
,,052224,001,2026-03-27_14h03.15.253,AFC,2024.2.4,MacIntel,59.88023952,,,,,,,,,,,,,,,,,,,,,,57.9875,59.5015,1,9,28,Items_pictures/9_healthy_cracker.png,Items_pictures/28_veg_burger.png,1,3,1,1,none,none,,0,45,0,45,0,1,,,,
,,052224,001,2026-03-27_14h03.15.253,AFC,2024.2.4,MacIntel,59.88023952,,,,,,,,,,,,,,,,,,,,,,60.0128,61.5018,1,42,22,Items_pictures/42_chocolate_snack.png,Items_pictures/22_veg_pizza.png,5,3,0,1,right,22,0.9719,1,46,0,46,0,1,,,,
,,052224,001,2026-03-27_14h03.15.253,AFC,2024.2.4,MacIntel,59.88023952,,,,,,,,,,,,,,,,,,,,,,61.5032,62.0185,1,39,25,Items_pictures/39_muffin.png,Items_pictures/25_fries.png,4,3,0,1,right,25,-9.99999E-05,1,47,0,47,0,1,,,,
,,052224,001,2026-03-27_14h03.15.253,AFC,2024.2.4,MacIntel,59.88023952,,,,,,,,,,,,,,,,,,,,,,62.0199,62.5351,1,39,28,Items_pictures/39_muffin.png,Items_pictures/28_veg_burger.png,4,3,0,1,right,28,-9.99999E-05,1,48,0,48,0,1,,,,
,,052224,001,2026-03-27_14h03.15.253,AFC,2024.2.4,MacIntel,59.88023952,,,,,,,,,,,,,,,,,,,,,,62.5364,63.0519,1,37,22,Items_pictures/37_pain_chocolat.png,Items_pictures/22_veg_pizza.png,4,3,0,1,right,22,9.99999E-05,1,49,0,49,0,1,,,,
,,052224,001,2026-03-27_14h03.15.253,AFC,2024.2.4,MacIntel,59.88023952,,,,,,,,,,,,,,,,,,,,,,63.0532,63.5685,1,25,5,Items_pictures/25_fries.png,Items_pictures/5_bell_pepper.png,3,1,1,1,right,5,-9.99999E-05,1,50,0,50,0,1,,,,
,,052224,001,2026-03-27_14h03.15.253,AFC,2024.2.4,MacIntel,59.88023952,,,,,,,,,,,,,,,,,,,,,,63.5699,64.3352,1,34,13,Items_pictures/34_donuts.png,Items_pictures/13_crisps.png,4,2,0,1,right,13,0.2645,1,51,0,51,0,1,,,,
,,052224,001,2026-03-27_14h03.15.253,AFC,2024.2.4,MacIntel,59.88023952,,,,,,,,,,,,,,,,,,,,,,64.3366,64.8511,1,39,1,Items_pictures/39_muffin.png,Items_pictures/1_apple.png,4,1,0,0,right,1,-2.3843E-10,1,52,0,52,0,1,,,,
,,052224,001,2026-03-27_14h03.15.253,AFC,2024.2.4,MacIntel,59.88023952,,,,,,,,,,,,,,,,,,,,,,64.8526,65.4185,1,44,53,Items_pictures/44_chocolate_snack.png,Items_pictures/53_ice_cream.png,5,6,0,0,right,53,0.0491,1,53,0,53,0,1,,,,
,,052224,001,2026-03-27_14h03.15.253,AFC,2024.2.4,MacIntel,59.88023952,,,,,,,,,,,,,,,,,,,,,,65.4199,65.9352,1,41,18,Items_pictures/41_chocolate_snack.png,Items_pictures/18_popcorn.png,5,2,0,1,right,18,2.38416E-10,1,54,0,54,0,1,,,,
,,052224,001,2026-03-27_14h03.15.253,AFC,2024.2.4,MacIntel,59.88023952,,,,,,,,,,,,,,,,,,,,,,65.9366,66.4529,1,60,36,Items_pictures/60_cupcake.png,Items_pictures/36_pretzel.png,6,4,0,1,right,36,9.99999E-05,1,55,0,55,0,1,,,,
,,052224,001,2026-03-27_14h03.15.253,AFC,2024.2.4,MacIntel,59.88023952,,,,,,,,,,,,,,,,,,,,,,66.4548,66.9685,1,5,60,Items_pictures/5_bell_pepper.png,Items_pictures/60_cupcake.png,1,6,1,0,right,60,-0.0002,1,56,0,56,0,1,,,,
,,052224,001,2026-03-27_14h03.15.253,AFC,2024.2.4,MacIntel,59.88023952,,,,,,,,,,,,,,,,,,,,,,66.9702,67.5352,1,28,55,Items_pictures/28_veg_burger.png,Items_pictures/55_creme_brulee.png,3,6,1,0,right,55,0.0647,1,57,0,57,0,1,,,,
,,052224,001,2026-03-27_14h03.15.253,AFC,2024.2.4,MacIntel,59.88023952,,,,,,,,,,,,,,,,,,,,,,67.5366,68.1019,1,53,55,Items_pictures/53_ice_cream.png,Items_pictures/55_creme_brulee.png,6,6,0,0,right,55,0.0651,1,58,0,58,0,1,,,,
,,052224,001,2026-03-27_14h03.15.253,AFC,2024.2.4,MacIntel,59.88023952,,,,,,,,,,,,,,,,,,,,,,68.1033,68.6684,1,44,30,Items_pictures/44_chocolate_snack.png,Items_pictures/30_onion_rings.png,5,3,0,1,right,30,0.0483,1,59,0,59,0,1,,,,
,,052224,001,2026-03-27_14h03.15.253,AFC,2024.2.4,MacIntel,59.88023952,,,,,,,,,,,,,,,,,,,,,,68.6698,69.1851,1,9,44,Items_pictures/9_healthy_cracker.png,Items_pictures/44_chocolate_snack.png,1,5,1,0,right,44,0.0151,1,60,0,60,0,1,,,,
,,052224,001,2026-03-27_14h03.15.253,AFC,2024.2.4,MacIntel,59.88023952,,,,,,,,,,,,,,,,,,,,,,69.1865,69.7684,1,37,20,Items_pictures/37_pain_chocolat.png,Items_pictures/20_tortillas.png,4,2,0,1,right,20,0.0817,1,61,0,61,0,1,,,,
,,052224,001,2026-03-27_14h03.15.253,AFC,2024.2.4,MacIntel,59.88023952,,,,,,,,,,,,,,,,,,,,,,69.7699,70.3351,1,18,22,Items_pictures/18_popcorn.png,Items_pictures/22_veg_pizza.png,2,3,1,1,right,22,0.0649,1,62,0,62,0,1,,,,
,,052224,001,2026-03-27_14h03.15.253,AFC,2024.2.4,MacIntel,59.88023952,,,,,,,,,,,,,,,,,,,,,,70.3363,71.1517,1,43,30,Items_pictures/43_chocolate_snack.png,Items_pictures/30_onion_rings.png,5,3,0,1,left,43,0.3152,1,63,0,63,0,1,,,,
,,052224,001,2026-03-27_14h03.15.253,AFC,2024.2.4,MacIntel,59.88023952,,,,,,,,,,,,,,,,,,,,,,71.153,71.6685,1,42,13,Items_pictures/42_chocolate_snack.png,Items_pictures/13_crisps.png,5,2,0,1,right,13,-2.38416E-10,1,64,0,64,0,1,,,,
,,052224,001,2026-03-27_14h03.15.253,AFC,2024.2.4,MacIntel,59.88023952,,,,,,,,,,,,,,,,,,,,,,71.6698,72.202,1,22,25,Items_pictures/22_veg_pizza.png,Items_pictures/25_fries.png,3,3,1,1,left,22,0.015,1,65,0,65,0,1,,,,
,,052224,001,2026-03-27_14h03.15.253,AFC,2024.2.4,MacIntel,59.88023952,,,,,,,,,,,,,,,,,,,,,,72.2032,72.718,1,39,44,Items_pictures/39_muffin.png,Items_pictures/44_chocolate_snack.png,4,5,0,0,right,44,-0.0002,1,66,0,66,0,1,,,,
,,052224,001,2026-03-27_14h03.15.253,AFC,2024.2.4,MacIntel,59.88023952,,,,,,,,,,,,,,,,,,,,,,72.7186,73.2354,1,41,60,Items_pictures/41_chocolate_snack.png,Items_pictures/60_cupcake.png,5,6,0,0,left,41,0.0161,1,67,0,67,0,1,,,,
,,052224,001,2026-03-27_14h03.15.253,AFC,2024.2.4,MacIntel,59.88023952,,,,,,,,,,,,,,,,,,,,,,73.2368,74.2854,1,9,15,Items_pictures/9_healthy_cracker.png,Items_pictures/15_flute.png,1,2,1,1,right,15,0.5482,1,68,0,68,0,1,,,,
,,052224,001,2026-03-27_14h03.15.253,AFC,2024.2.4,MacIntel,59.88023952,,,,,,,,,,,,,,,,,,75.0031,75.6019,75.6021,76.2186,76.2207,77.0184,2,30,60,Items_pictures/30_onion_rings.png,Items_pictures/60_cupcake.png,3,6,1,0,right,60,0.281,1,0,0,0,0,1,74.2875,75.0024,,
,,052224,001,2026-03-27_14h03.15.253,AFC,2024.2.4,MacIntel,59.88023952,,,,,,,,,,,,,,,,,,,,,,77.0198,77.5517,2,1,28,Items_pictures/1_apple.png,Items_pictures/28_veg_burger.png,1,3,0,1,left,1,0.0318,1,1,0,1,0,1,,,,
,,052224,001,2026-03-27_14h03.15.253,AFC,2024.2.4,MacIntel,59.88023952,,,,,,,,,,,,,,,,,,,,,,77.5529,78.1018,2,39,55,Items_pictures/39_muffin.png,Items_pictures/55_creme_brulee.png,4,6,0,0,right,55,0.0487,1,2,0,2,0,1,,,,
,,052224,001,2026-03-27_14h03.15.253,AFC,2024.2.4,MacIntel,59.88023952,,,,,,,,,,,,,,,,,,,,,,78.1031,78.6183,2,53,36,Items_pictures/53_ice_cream.png,Items_pictures/36_pretzel.png,6,4,0,1,right,36,-2.38416E-10,1,3,0,3,0,1,,,,
,,052224,001,2026-03-27_14h03.15.253,AFC,2024.2.4,MacIntel,59.88023952,,,,,,,,,,,,,,,,,,,,,,78.6198,79.1351,2,43,22,Items_pictures/43_chocolate_snack.png,Items_pictures/22_veg_pizza.png,5,3,0,1,left,43,0.0001,1,4,0,4,0,1,,,,
,,052224,001,2026-03-27_14h03.15.253,AFC,2024.2.4,MacIntel,59.88023952,,,,,,,,,,,,,,,,,,,,,,79.1364,79.6514,2,25,20,Items_pictures/25_fries.png,Items_pictures/20_tortillas.png,3,2,1,1,right,20,0,1,5,0,5,0,1,,,,
,,052224,001,2026-03-27_14h03.15.253,AFC,2024.2.4,MacIntel,59.88023952,,,,,,,,,,,,,,,,,,,,,,79.6519,80.502,2,42,43,Items_pictures/42_chocolate_snack.png,Items_pictures/43_chocolate_snack.png,5,5,0,0,right,43,0.3497,1,6,0,6,0,1,,,,
,,052224,001,2026-03-27_14h03.15.253,AFC,2024.2.4,MacIntel,59.88023952,,,,,,,,,,,,,,,,,,,,,,80.5032,81.1518,2,22,56,Items_pictures/22_veg_pizza.png,Items_pictures/56_macaron.png,3,6,1,0,left,22,0.1483,1,7,0,7,0,1,,,,
,,052224,001,2026-03-27_14h03.15.253,AFC,2024.2.4,MacIntel,59.88023952,,,,,,,,,,,,,,,,,,,,,,81.1533,81.6683,2,15,39,Items_pictures/15_flute.png,Items_pictures/39_muffin.png,2,4,1,0,right,39,0.0149,1,8,0,8,0,1,,,,
,,052224,001,2026-03-27_14h03.15.253,AFC,2024.2.4,MacIntel,59.88023952,,,,,,,,,,,,,,,,,,,,,,81.6689,82.2688,2,25,53,Items_pictures/25_fries.png,Items_pictures/53_ice_cream.png,3,6,1,0,left,25,0.0992,1,9,0,9,0,1,,,,
,,052224,001,2026-03-27_14h03.15.253,AFC,2024.2.4,MacIntel,59.88023952,,,,,,,,,,,,,,,,,,,,,,82.2701,82.8686,2,1,36,Items_pictures/1_apple.png,Items_pictures/36_pretzel.png,1,4,0,1,right,36,0.0982,1,10,0,10,0,1,,,,
,,052224,001,2026-03-27_14h03.15.253,AFC,2024.2.4,MacIntel,59.88023952,,,,,,,,,,,,,,,,,,,,,,82.8699,83.4687,2,53,20,Items_pictures/53_ice_cream.png,Items_pictures/20_tortillas.png,6,2,0,1,left,53,0.0817,1,11,0,11,0,1,,,,
,,052224,001,2026-03-27_14h03.15.253,AFC,2024.2.4,MacIntel,59.88023952,,,,,,,,,,,,,,,,,,,,,,83.4701,84.0351,2,34,44,Items_pictures/34_donuts.png,Items_pictures/44_chocolate_snack.png,4,5,0,0,right,44,0.0648,1,12,0,12,0,1,,,,
,,052224,001,2026-03-27_14h03.15.253,AFC,2024.2.4,MacIntel,59.88023952,,,,,,,,,,,,,,,,,,,,,,84.0364,84.5854,2,60,43,Items_pictures/60_cupcake.png,Items_pictures/43_chocolate_snack.png,6,5,0,0,left,60,0.0482,1,13,0,13,0,1,,,,
,,052224,001,2026-03-27_14h03.15.253,AFC,2024.2.4,MacIntel,59.88023952,,,,,,,,,,,,,,,,,,,,,,84.5866,85.1021,2,30,56,Items_pictures/30_onion_rings.png,Items_pictures/56_macaron.png,3,6,1,0,right,56,0.015,1,14,0,14,0,1,,,,
,,052224,001,2026-03-27_14h03.15.253,AFC,2024.2.4,MacIntel,59.88023952,,,,,,,,,,,,,,,,,,,,,,85.1033,85.8187,2,1,30,Items_pictures/1_apple.png,Items_pictures/30_onion_rings.png,1,3,0,1,left,1,0.2149,1,15,0,15,0,1,,,,
,,052224,001,2026-03-27_14h03.15.253,AFC,2024.2.4,MacIntel,59.88023952,,,,,,,,,,,,,,,,,,,,,,85.82,86.385,2,55,5,Items_pictures/55_creme_brulee.png,Items_pictures/5_bell_pepper.png,6,1,0,1,left,55,0.0649,1,16,0,16,0,1,,,,
,,052224,001,2026-03-27_14h03.15.253,AFC,2024.2.4,MacIntel,59.88023952,,,,,,,,,,,,,,,,,,,,,,86.3864,86.902,2,6,60,Items_pictures/6_strawberries.png,Items_pictures/60_cupcake.png,1,6,0,0,left,6,0.0151,1,17,0,17,0,1,,,,
,,052224,001,2026-03-27_14h03.15.253,AFC,2024.2.4,MacIntel,59.88023952,,,,,,,,,,,,,,,,,,,,,,86.9032,87.4517,2,55,13,Items_pictures/55_creme_brulee.png,Items_pictures/13_crisps.png,6,2,0,1,right,13,0.0318,1,18,0,18,0,1,,,,
,,052224,001,2026-03-27_14h03.15.253,AFC,2024.2.4,MacIntel,59.88023952,,,,,,,,,,,,,,,,,,,,,,87.453,87.9681,2,25,6,Items_pictures/25_fries.png,Items_pictures/6_strawberries.png,3,1,1,0,left,25,0.0151,1,19,0,19,0,1,,,,
,,052224,001,2026-03-27_14h03.15.253,AFC,2024.2.4,MacIntel,59.88023952,,,,,,,,,,,,,,,,,,,,,,87.9685,88.5348,2,22,1,Items_pictures/22_veg_pizza.png,Items_pictures/1_apple.png,3,1,1,0,right,1,0.0662,1,20,0,20,0,1,,,,
,,052224,001,2026-03-27_14h03.15.253,AFC,2024.2.4,MacIntel,59.88023952,,,,,,,,,,,,,,,,,,,,,,88.5361,89.385,2,41,55,Items_pictures/41_chocolate_snack.png,Items_pictures/55_creme_brulee.png,5,6,0,0,left,41,0.3319,1,21,0,21,0,1,,,,
,,052224,001,2026-03-27_14h03.15.253,AFC,2024.2.4,MacIntel,59.88023952,,,,,,,,,,,,,,,,,,,,,,89.3864,89.9018,2,18,37,Items_pictures/18_popcorn.png,Items_pictures/37_pain_chocolat.png,2,4,1,0,left,18,0.0001,1,22,0,22,0,1,,,,
,,052224,001,2026-03-27_14h03.15.253,AFC,2024.2.4,MacIntel,59.88023952,,,,,,,,,,,,,,,,,,,,,,89.9032,90.4184,2,13,15,Items_pictures/13_crisps.png,Items_pictures/15_flute.png,2,2,1,1,right,15,0,1,23,0,23,0,1,,,,
,,052224,001,2026-03-27_14h03.15.253,AFC,2024.2.4,MacIntel,59.88023952,,,,,,,,,,,,,,,,,,,,,,90.4197,90.935,2,56,1,Items_pictures/56_macaron.png,Items_pictures/1_apple.png,6,1,0,0,left,56,-9.99999E-05,1,24,0,24,0,1,,,,
,,052224,001,2026-03-27_14h03.15.253,AFC,2024.2.4,MacIntel,59.88023952,,,,,,,,,,,,,,,,,,,,,,90.9359,91.4516,2,6,28,Items_pictures/6_strawberries.png,Items_pictures/28_veg_burger.png,1,3,0,1,right,28,-2.38416E-10,1,25,0,25,0,1,,,,
,,052224,001,2026-03-27_14h03.15.253,AFC,2024.2.4,MacIntel,59.88023952,,,,,,,,,,,,,,,,,,,,,,91.4524,91.9682,2,60,53,Items_pictures/60_cupcake.png,Items_pictures/53_ice_cream.png,6,6,0,0,left,60,2.38416E-10,1,26,0,26,0,1,,,,
,,052224,001,2026-03-27_14h03.15.253,AFC,2024.2.4,MacIntel,59.88023952,,,,,,,,,,,,,,,,,,,,,,91.9689,92.4854,2,9,22,Items_pictures/9_healthy_cracker.png,Items_pictures/22_veg_pizza.png,1,3,1,1,right,22,0,1,27,0,27,0,1,,,,
,,052224,001,2026-03-27_14h03.15.253,AFC,2024.2.4,MacIntel,59.88023952,,,,,,,,,,,,,,,,,,,,,,92.4866,93.0351,2,25,37,Items_pictures/25_fries.png,Items_pictures/37_pain_chocolat.png,3,4,1,0,left,25,0.0482,1,28,0,28,0,1,,,,
,,052224,001,2026-03-27_14h03.15.253,AFC,2024.2.4,MacIntel,59.88023952,,,,,,,,,,,,,,,,,,,,,,93.0364,93.5517,2,34,1,Items_pictures/34_donuts.png,Items_pictures/1_apple.png,4,1,0,0,right,1,0.015,1,29,0,29,0,1,,,,
,,052224,001,2026-03-27_14h03.15.253,AFC,2024.2.4,MacIntel,59.88023952,,,,,,,,,,,,,,,,,,,,,,93.5531,94.0684,2,37,30,Items_pictures/37_pain_chocolat.png,Items_pictures/30_onion_rings.png,4,3,0,1,right,30,-0.0001,1,30,0,30,0,1,,,,
,,052224,001,2026-03-27_14h03.15.253,AFC,2024.2.4,MacIntel,59.88023952,,,,,,,,,,,,,,,,,,,,,,94.0698,94.5854,2,20,18,Items_pictures/20_tortillas.png,Items_pictures/18_popcorn.png,2,2,1,1,left,20,0.0001,1,31,0,31,0,1,,,,
,,052224,001,2026-03-27_14h03.15.253,AFC,2024.2.4,MacIntel,59.88023952,,,,,,,,,,,,,,,,,,,,,,94.5868,95.1017,2,60,56,Items_pictures/60_cupcake.png,Items_pictures/56_macaron.png,6,6,0,0,right,56,0,1,32,0,32,0,1,,,,
,,052224,001,2026-03-27_14h03.15.253,AFC,2024.2.4,MacIntel,59.88023952,,,,,,,,,,,,,,,,,,,,,,95.1027,95.6185,2,53,22,Items_pictures/53_ice_cream.png,Items_pictures/22_veg_pizza.png,6,3,0,1,left,53,-9.99999E-05,1,33,0,33,0,1,,,,
,,052224,001,2026-03-27_14h03.15.253,AFC,2024.2.4,MacIntel,59.88023952,,,,,,,,,,,,,,,,,,,,,,95.6199,96.1347,2,22,28,Items_pictures/22_veg_pizza.png,Items_pictures/28_veg_burger.png,3,3,1,1,right,28,0,1,34,0,34,0,1,,,,
,,052224,001,2026-03-27_14h03.15.253,AFC,2024.2.4,MacIntel,59.88023952,,,,,,,,,,,,,,,,,,,,,,96.136,96.6515,2,36,22,Items_pictures/36_pretzel.png,Items_pictures/22_veg_pizza.png,4,3,1,1,left,36,-2.38416E-10,1,35,0,35,0,1,,,,
,,052224,001,2026-03-27_14h03.15.253,AFC,2024.2.4,MacIntel,59.88023952,,,,,,,,,,,,,,,,,,,,,,96.6529,97.585,2,55,9,Items_pictures/55_creme_brulee.png,Items_pictures/9_healthy_cracker.png,6,1,0,1,left,55,0.4154,1,36,0,36,0,1,,,,
,,052224,001,2026-03-27_14h03.15.253,AFC,2024.2.4,MacIntel,59.88023952,,,,,,,,,,,,,,,,,,,,,,97.5865,98.1017,2,18,53,Items_pictures/18_popcorn.png,Items_pictures/53_ice_cream.png,2,6,1,0,left,18,-0.0001,1,37,0,37,0,1,,,,
,,052224,001,2026-03-27_14h03.15.253,AFC,2024.2.4,MacIntel,59.88023952,,,,,,,,,,,,,,,,,,,,,,98.1031,98.6184,2,9,39,Items_pictures/9_healthy_cracker.png,Items_pictures/39_muffin.png,1,4,1,0,right,39,0,1,38,0,38,0,1,,,,
,,052224,001,2026-03-27_14h03.15.253,AFC,2024.2.4,MacIntel,59.88023952,,,,,,,,,,,,,,,,,,,,,,98.6197,99.1349,2,25,13,Items_pictures/25_fries.png,Items_pictures/13_crisps.png,3,2,1,1,left,25,0.0001,1,39,0,39,0,1,,,,
,,052224,001,2026-03-27_14h03.15.253,AFC,2024.2.4,MacIntel,59.88023952,,,,,,,,,,,,,,,,,,,,,,99.1359,99.6516,2,28,41,Items_pictures/28_veg_burger.png,Items_pictures/41_chocolate_snack.png,3,5,1,0,right,41,-9.99999E-05,1,40,0,40,0,1,,,,
,,052224,001,2026-03-27_14h03.15.253,AFC,2024.2.4,MacIntel,59.88023952,,,,,,,,,,,,,,,,,,,,,,99.653,100.4681,2,13,22,Items_pictures/13_crisps.png,Items_pictures/22_veg_pizza.png,2,3,1,1,right,22,0.3145,1,41,0,41,0,1,,,,
,,052224,001,2026-03-27_14h03.15.253,AFC,2024.2.4,MacIntel,59.88023952,,,,,,,,,,,,,,,,,,,,,,100.4685,101.2684,2,56,37,Items_pictures/56_macaron.png,Items_pictures/37_pain_chocolat.png,6,4,0,0,left,56,0.2994,1,42,0,42,0,1,,,,
,,052224,001,2026-03-27_14h03.15.253,AFC,2024.2.4,MacIntel,59.88023952,,,,,,,,,,,,,,,,,,,,,,101.2696,102.1851,2,42,15,Items_pictures/42_chocolate_snack.png,Items_pictures/15_flute.png,5,2,0,1,left,42,0.4153,1,43,0,43,0,1,,,,
,,052224,001,2026-03-27_14h03.15.253,AFC,2024.2.4,MacIntel,59.88023952,,,,,,,,,,,,,,,,,,,,,,102.1866,102.7854,2,15,44,Items_pictures/15_flute.png,Items_pictures/44_chocolate_snack.png,2,5,1,0,left,15,0.098,1,44,0,44,0,1,,,,
,,052224,001,2026-03-27_14h03.15.253,AFC,2024.2.4,MacIntel,59.88023952,,,,,,,,,,,,,,,,,,,,,,102.7866,103.4017,2,44,22,Items_pictures/44_chocolate_snack.png,Items_pictures/22_veg_pizza.png,5,3,0,1,right,22,0.1148,1,45,0,45,0,1,,,,
,,052224,001,2026-03-27_14h03.15.253,AFC,2024.2.4,MacIntel,59.88023952,,,,,,,,,,,,,,,,,,,,,,103.4029,103.9183,2,13,36,Items_pictures/13_crisps.png,Items_pictures/36_pretzel.png,2,4,1,1,left,13,0.0151,1,46,0,46,0,1,,,,
,,052224,001,2026-03-27_14h03.15.253,AFC,2024.2.4,MacIntel,59.88023952,,,,,,,,,,,,,,,,,,,,,,103.9197,104.4351,2,42,18,Items_pictures/42_chocolate_snack.png,Items_pictures/18_popcorn.png,5,2,0,1,right,18,9.99999E-05,1,47,0,47,0,1,,,,
,,052224,001,2026-03-27_14h03.15.253,AFC,2024.2.4,MacIntel,59.88023952,,,,,,,,,,,,,,,,,,,,,,104.4365,104.9518,2,36,42,Items_pictures/36_pretzel.png,Items_pictures/42_chocolate_snack.png,4,5,1,0,left,36,-2.38416E-10,1,48,0,48,0,1,,,,
,,052224,001,2026-03-27_14h03.15.253,AFC,2024.2.4,MacIntel,59.88023952,,,,,,,,,,,,,,,,,,,,,,104.953,105.4675,2,43,55,Items_pictures/43_chocolate_snack.png,Items_pictures/55_creme_brulee.png,5,6,0,0,right,55,-9.99999E-05,1,49,0,49,0,1,,,,
,,052224,001,2026-03-27_14h03.15.253,AFC,2024.2.4,MacIntel,59.88023952,,,,,,,,,,,,,,,,,,,,,,105.4683,106.3351,2,53,6,Items_pictures/53_ice_cream.png,Items_pictures/6_strawberries.png,6,1,0,0,left,53,0.3659,1,50,0,50,0,1,,,,
,,052224,001,2026-03-27_14h03.15.253,AFC,2024.2.4,MacIntel,59.88023952,,,,,,,,,,,,,,,,,,,,,,106.3365,106.8512,2,9,30,Items_pictures/9_healthy_cracker.png,Items_pictures/30_onion_rings.png,1,3,1,1,right,30,9.99999E-05,1,51,0,51,0,1,,,,
,,052224,001,2026-03-27_14h03.15.253,AFC,2024.2.4,MacIntel,59.88023952,,,,,,,,,,,,,,,,,,,,,,106.8524,107.5346,2,30,18,Items_pictures/30_onion_rings.png,Items_pictures/18_popcorn.png,3,2,1,1,left,30,0.1659,1,52,0,52,0,1,,,,
,,052224,001,2026-03-27_14h03.15.253,AFC,2024.2.4,MacIntel,59.88023952,,,,,,,,,,,,,,,,,,,,,,107.5359,108.052,2,18,15,Items_pictures/18_popcorn.png,Items_pictures/15_flute.png,2,2,1,1,left,18,0.0156,1,53,0,53,0,1,,,,
,,052224,001,2026-03-27_14h03.15.253,AFC,2024.2.4,MacIntel,59.88023952,,,,,,,,,,,,,,,,,,,,,,108.0533,108.6019,2,44,41,Items_pictures/44_chocolate_snack.png,Items_pictures/41_chocolate_snack.png,5,5,0,0,right,41,0.0482,1,54,0,54,0,1,,,,
,,052224,001,2026-03-27_14h03.15.253,AFC,2024.2.4,MacIntel,59.88023952,,,,,,,,,,,,,,,,,,,,,,108.6031,109.1352,2,9,25,Items_pictures/9_healthy_cracker.png,Items_pictures/25_fries.png,1,3,1,1,left,9,0.0317,1,55,0,55,0,1,,,,
,,052224,001,2026-03-27_14h03.15.253,AFC,2024.2.4,MacIntel,59.88023952,,,,,,,,,,,,,,,,,,,,,,109.1365,109.7188,2,1,44,Items_pictures/1_apple.png,Items_pictures/44_chocolate_snack.png,1,5,0,0,right,44,0.0813,1,56,0,56,0,1,,,,
,,052224,001,2026-03-27_14h03.15.253,AFC,2024.2.4,MacIntel,59.88023952,,,,,,,,,,,,,,,,,,,,,,109.72,110.2516,2,20,55,Items_pictures/20_tortillas.png,Items_pictures/55_creme_brulee.png,2,6,1,0,left,20,0.0312,1,57,0,57,0,1,,,,
,,052224,001,2026-03-27_14h03.15.253,AFC,2024.2.4,MacIntel,59.88023952,,,,,,,,,,,,,,,,,,,,,,110.253,110.7683,2,56,42,Items_pictures/56_macaron.png,Items_pictures/42_chocolate_snack.png,6,5,0,0,right,42,0.0149,1,58,0,58,0,1,,,,
,,052224,001,2026-03-27_14h03.15.253,AFC,2024.2.4,MacIntel,59.88023952,,,,,,,,,,,,,,,,,,,,,,110.7696,111.3516,2,41,9,Items_pictures/41_chocolate_snack.png,Items_pictures/9_healthy_cracker.png,5,1,0,1,right,9,0.0819,1,59,0,59,0,1,,,,
,,052224,001,2026-03-27_14h03.15.253,AFC,2024.2.4,MacIntel,59.88023952,,,,,,,,,,,,,,,,,,,,,,111.3528,112.0183,2,34,56,Items_pictures/34_donuts.png,Items_pictures/56_macaron.png,4,6,0,0,left,34,0.1654,1,60,0,60,0,1,,,,
,,052224,001,2026-03-27_14h03.15.253,AFC,2024.2.4,MacIntel,59.88023952,,,,,,,,,,,,,,,,,,,,,,112.0195,112.535,2,42,25,Items_pictures/42_chocolate_snack.png,Items_pictures/25_fries.png,5,3,0,1,right,25,0,1,61,0,61,0,1,,,,
,,052224,001,2026-03-27_14h03.15.253,AFC,2024.2.4,MacIntel,59.88023952,,,,,,,,,,,,,,,,,,,,,,112.5363,113.0517,2,5,37,Items_pictures/5_bell_pepper.png,Items_pictures/37_pain_chocolat.png,1,4,1,0,left,5,2.3843E-10,1,62,0,62,0,1,,,,
,,052224,001,2026-03-27_14h03.15.253,AFC,2024.2.4,MacIntel,59.88023952,,,,,,,,,,,,,,,,,,,,,,113.053,113.5683,2,55,1,Items_pictures/55_creme_brulee.png,Items_pictures/1_apple.png,6,1,0,0,left,55,-2.3843E-10,1,63,0,63,0,1,,,,
,,052224,001,2026-03-27_14h03.15.253,AFC,2024.2.4,MacIntel,59.88023952,,,,,,,,,,,,,,,,,,,,,,113.5698,114.0849,2,56,55,Items_pictures/56_macaron.png,Items_pictures/55_creme_brulee.png,6,6,0,0,right,55,0.0001,1,64,0,64,0,1,,,,
,,052224,001,2026-03-27_14h03.15.253,AFC,2024.2.4,MacIntel,59.88023952,,,,,,,,,,,,,,,,,,,,,,114.0863,115.0178,2,55,6,Items_pictures/55_creme_brulee.png,Items_pictures/6_strawberries.png,6,1,0,0,right,6,0.415,1,65,0,65,0,1,,,,
,,052224,001,2026-03-27_14h03.15.253,AFC,2024.2.4,MacIntel,59.88023952,,,,,,,,,,,,,,,,,,,,,,115.0186,115.535,2,41,25,Items_pictures/41_chocolate_snack.png,Items_pictures/25_fries.png,5,3,0,1,right,25,-2.3843E-10,1,66,0,66,0,1,,,,
,,052224,001,2026-03-27_14h03.15.253,AFC,2024.2.4,MacIntel,59.88023952,,,,,,,,,,,,,,,,,,,,,,115.5363,116.0515,2,13,5,Items_pictures/13_crisps.png,Items_pictures/5_bell_pepper.png,2,1,1,1,left,13,-9.99997E-05,1,67,0,67,0,1,,,,
,,052224,001,2026-03-27_14h03.15.253,AFC,2024.2.4,MacIntel,59.88023952,,,,,,,,,,,,,,,,,,,,,,116.0523,117.135,2,44,37,Items_pictures/44_chocolate_snack.png,Items_pictures/37_pain_chocolat.png,5,4,0,0,left,44,0.5659,1,68,0,68,0,1,,,,
,,052224,001,2026-03-27_14h03.15.253,AFC,2024.2.4,MacIntel,59.88023952,,,,,,,,,,,,,,,,,,117.2351,117.952,117.9522,118.3852,118.3873,119.2017,3,13,60,Items_pictures/13_crisps.png,Items_pictures/60_cupcake.png,2,6,1,0,left,13,0.3142,1,0,0,0,0,1,117.1366,117.2347,,
,,052224,001,2026-03-27_14h03.15.253,AFC,2024.2.4,MacIntel,59.88023952,,,,,,,,,,,,,,,,,,,,,,119.2031,120.035,3,30,20,Items_pictures/30_onion_rings.png,Items_pictures/20_tortillas.png,3,2,1,1,left,30,0.3314,1,1,0,1,0,1,,,,
,,052224,001,2026-03-27_14h03.15.253,AFC,2024.2.4,MacIntel,59.88023952,,,,,,,,,,,,,,,,,,,,,,120.0363,120.8684,3,37,28,Items_pictures/37_pain_chocolat.png,Items_pictures/28_veg_burger.png,4,3,0,1,left,37,0.3316,1,2,0,2,0,1,,,,
,,052224,001,2026-03-27_14h03.15.253,AFC,2024.2.4,MacIntel,59.88023952,,,,,,,,,,,,,,,,,,,,,,120.8698,121.6685,3,34,55,Items_pictures/34_donuts.png,Items_pictures/55_creme_brulee.png,4,6,0,0,right,55,0.2984,1,3,0,3,0,1,,,,
,,052224,001,2026-03-27_14h03.15.253,AFC,2024.2.4,MacIntel,59.88023952,,,,,,,,,,,,,,,,,,,,,,121.6699,122.9183,3,25,43,Items_pictures/25_fries.png,Items_pictures/43_chocolate_snack.png,3,5,1,0,left,25,0.7483,1,4,0,4,0,1,,,,
,,052224,001,2026-03-27_14h03.15.253,AFC,2024.2.4,MacIntel,59.88023952,,,,,,,,,,,,,,,,,,,,,,122.9197,123.4683,3,53,1,Items_pictures/53_ice_cream.png,Items_pictures/1_apple.png,6,1,0,0,right,1,0.0476,1,5,0,5,0,1,,,,
,,052224,001,2026-03-27_14h03.15.253,AFC,2024.2.4,MacIntel,59.88023952,,,,,,,,,,,,,,,,,,,,,,123.4698,124.285,3,41,39,Items_pictures/41_chocolate_snack.png,Items_pictures/39_muffin.png,5,4,0,0,left,41,0.3151,1,6,0,6,0,1,,,,
,,052224,001,2026-03-27_14h03.15.253,AFC,2024.2.4,MacIntel,59.88023952,,,,,,,,,,,,,,,,,,,,,,124.2864,124.8353,3,41,37,Items_pictures/41_chocolate_snack.png,Items_pictures/37_pain_chocolat.png,5,4,0,0,left,41,0.0416,1,7,0,7,0,1,,,,
,,052224,001,2026-03-27_14h03.15.253,AFC,2024.2.4,MacIntel,59.88023952,,,,,,,,,,,,,,,,,,,,,,124.8372,125.552,3,5,42,Items_pictures/5_bell_pepper.png,Items_pictures/42_chocolate_snack.png,1,5,1,0,left,5,0.2143,1,8,0,8,0,1,,,,
,,052224,001,2026-03-27_14h03.15.253,AFC,2024.2.4,MacIntel,59.88023952,,,,,,,,,,,,,,,,,,,,,,125.5533,126.2685,3,15,55,Items_pictures/15_flute.png,Items_pictures/55_creme_brulee.png,2,6,1,0,right,55,0.2146,1,9,0,9,0,1,,,,
,,052224,001,2026-03-27_14h03.15.253,AFC,2024.2.4,MacIntel,59.88023952,,,,,,,,,,,,,,,,,,,,,,126.2698,126.935,3,41,56,Items_pictures/41_chocolate_snack.png,Items_pictures/56_macaron.png,5,6,0,0,left,41,0.1641,1,10,0,10,0,1,,,,
,,052224,001,2026-03-27_14h03.15.253,AFC,2024.2.4,MacIntel,59.88023952,,,,,,,,,,,,,,,,,,,,,,126.9362,127.4516,3,37,42,Items_pictures/37_pain_chocolat.png,Items_pictures/42_chocolate_snack.png,4,5,0,0,left,37,0.0001,1,11,0,11,0,1,,,,
,,052224,001,2026-03-27_14h03.15.253,AFC,2024.2.4,MacIntel,59.88023952,,,,,,,,,,,,,,,,,,,,,,127.4529,128.2019,3,37,55,Items_pictures/37_pain_chocolat.png,Items_pictures/55_creme_brulee.png,4,6,0,0,right,55,0.2319,1,12,0,12,0,1,,,,
,,052224,001,2026-03-27_14h03.15.253,AFC,2024.2.4,MacIntel,59.88023952,,,,,,,,,,,,,,,,,,,,,,128.2032,128.7519,3,34,39,Items_pictures/34_donuts.png,Items_pictures/39_muffin.png,4,4,0,0,left,34,0.0472,1,13,0,13,0,1,,,,
,,052224,001,2026-03-27_14h03.15.253,AFC,2024.2.4,MacIntel,59.88023952,,,,,,,,,,,,,,,,,,,,,,128.7533,129.3353,3,37,39,Items_pictures/37_pain_chocolat.png,Items_pictures/39_muffin.png,4,4,0,0,right,39,0.0805,1,14,0,14,0,1,,,,
,,052224,001,2026-03-27_14h03.15.253,AFC,2024.2.4,MacIntel,59.88023952,,,,,,,,,,,,,,,,,,,,,,129.3366,130.0686,3,20,56,Items_pictures/20_tortillas.png,Items_pictures/56_macaron.png,2,6,1,0,left,20,0.2315,1,15,0,15,0,1,,,,
,,052224,001,2026-03-27_14h03.15.253,AFC,2024.2.4,MacIntel,59.88023952,,,,,,,,,,,,,,,,,,,,,,130.0699,130.9852,3,37,60,Items_pictures/37_pain_chocolat.png,Items_pictures/60_cupcake.png,4,6,0,0,left,37,0.415,1,16,0,16,0,1,,,,
,,052224,001,2026-03-27_14h03.15.253,AFC,2024.2.4,MacIntel,59.88023952,,,,,,,,,,,,,,,,,,,,,,130.9866,131.6015,3,9,13,Items_pictures/9_healthy_cracker.png,Items_pictures/13_crisps.png,1,2,1,1,right,13,0.0983,1,17,0,17,0,1,,,,
,,052224,001,2026-03-27_14h03.15.253,AFC,2024.2.4,MacIntel,59.88023952,,,,,,,,,,,,,,,,,,,,,,131.6029,132.1178,3,39,5,Items_pictures/39_muffin.png,Items_pictures/5_bell_pepper.png,4,1,0,1,left,39,0.0141,1,18,0,18,0,1,,,,
,,052224,001,2026-03-27_14h03.15.253,AFC,2024.2.4,MacIntel,59.88023952,,,,,,,,,,,,,,,,,,,,,,132.1192,132.7016,3,5,20,Items_pictures/5_bell_pepper.png,Items_pictures/20_tortillas.png,1,2,1,1,right,20,0.0655,1,19,0,19,0,1,,,,
,,052224,001,2026-03-27_14h03.15.253,AFC,2024.2.4,MacIntel,59.88023952,,,,,,,,,,,,,,,,,,,,,,132.703,133.2183,3,44,20,Items_pictures/44_chocolate_snack.png,Items_pictures/20_tortillas.png,5,2,0,1,left,44,0.0144,1,20,0,20,0,1,,,,
,,052224,001,2026-03-27_14h03.15.253,AFC,2024.2.4,MacIntel,59.88023952,,,,,,,,,,,,,,,,,,,,,,133.2196,133.7342,3,41,22,Items_pictures/41_chocolate_snack.png,Items_pictures/22_veg_pizza.png,5,3,0,1,left,41,0,1,21,0,21,0,1,,,,
,,052224,001,2026-03-27_14h03.15.253,AFC,2024.2.4,MacIntel,59.88023952,,,,,,,,,,,,,,,,,,,,,,133.7358,134.2516,3,34,25,Items_pictures/34_donuts.png,Items_pictures/25_fries.png,4,3,0,1,left,34,9.99999E-05,1,22,0,22,0,1,,,,
,,052224,001,2026-03-27_14h03.15.253,AFC,2024.2.4,MacIntel,59.88023952,,,,,,,,,,,,,,,,,,,,,,134.2528,134.7674,3,60,28,Items_pictures/60_cupcake.png,Items_pictures/28_veg_burger.png,6,3,0,1,right,28,-0.0002,1,23,0,23,0,1,,,,
,,052224,001,2026-03-27_14h03.15.253,AFC,2024.2.4,MacIntel,59.88023952,,,,,,,,,,,,,,,,,,,,,,134.7687,135.2847,3,20,41,Items_pictures/20_tortillas.png,Items_pictures/41_chocolate_snack.png,2,5,1,0,left,20,-9.99999E-05,1,24,0,24,0,1,,,,
,,052224,001,2026-03-27_14h03.15.253,AFC,2024.2.4,MacIntel,59.88023952,,,,,,,,,,,,,,,,,,,,,,135.286,135.8182,3,18,56,Items_pictures/18_popcorn.png,Items_pictures/56_macaron.png,2,6,1,0,right,56,0.0319,1,25,0,25,0,1,,,,
,,052224,001,2026-03-27_14h03.15.253,AFC,2024.2.4,MacIntel,59.88023952,,,,,,,,,,,,,,,,,,,,,,135.8197,136.368,3,37,53,Items_pictures/37_pain_chocolat.png,Items_pictures/53_ice_cream.png,4,6,0,0,left,37,0.0482,1,26,0,26,0,1,,,,
,,052224,001,2026-03-27_14h03.15.253,AFC,2024.2.4,MacIntel,59.88023952,,,,,,,,,,,,,,,,,,,,,,136.3687,136.9839,3,22,34,Items_pictures/22_veg_pizza.png,Items_pictures/34_donuts.png,3,4,1,0,right,34,0.0995,1,27,0,27,0,1,,,,
,,052224,001,2026-03-27_14h03.15.253,AFC,2024.2.4,MacIntel,59.88023952,,,,,,,,,,,,,,,,,,,,,,136.9856,137.5006,3,13,39,Items_pictures/13_crisps.png,Items_pictures/39_muffin.png,2,4,1,0,left,13,-2.38401E-10,1,28,0,28,0,1,,,,
,,052224,001,2026-03-27_14h03.15.253,AFC,2024.2.4,MacIntel,59.88023952,,,,,,,,,,,,,,,,,,,,,,137.502,138.4006,3,60,18,Items_pictures/60_cupcake.png,Items_pictures/18_popcorn.png,6,2,0,1,left,60,0.3829,1,29,0,29,0,1,,,,
,,052224,001,2026-03-27_14h03.15.253,AFC,2024.2.4,MacIntel,59.88023952,,,,,,,,,,,,,,,,,,,,,,138.402,138.9179,3,42,34,Items_pictures/42_chocolate_snack.png,Items_pictures/34_donuts.png,5,4,0,0,left,42,-0.0001,1,30,0,30,0,1,,,,
,,052224,001,2026-03-27_14h03.15.253,AFC,2024.2.4,MacIntel,59.88023952,,,,,,,,,,,,,,,,,,,,,,138.9193,139.5172,3,25,15,Items_pictures/25_fries.png,Items_pictures/15_flute.png,3,2,1,1,right,15,0.0977,1,31,0,31,0,1,,,,
,,052224,001,2026-03-27_14h03.15.253,AFC,2024.2.4,MacIntel,59.88023952,,,,,,,,,,,,,,,,,,,,,,139.5188,140.0516,3,28,20,Items_pictures/28_veg_burger.png,Items_pictures/20_tortillas.png,3,2,1,1,left,28,0.0327,1,32,0,32,0,1,,,,
,,052224,001,2026-03-27_14h03.15.253,AFC,2024.2.4,MacIntel,59.88023952,,,,,,,,,,,,,,,,,,,,,,140.053,140.5685,3,37,34,Items_pictures/37_pain_chocolat.png,Items_pictures/34_donuts.png,4,4,0,0,right,34,0.015,1,33,0,33,0,1,,,,
,,052224,001,2026-03-27_14h03.15.253,AFC,2024.2.4,MacIntel,59.88023952,,,,,,,,,,,,,,,,,,,,,,140.5698,141.0849,3,30,25,Items_pictures/30_onion_rings.png,Items_pictures/25_fries.png,3,3,1,1,left,30,0.0147,1,34,0,34,0,1,,,,
,,052224,001,2026-03-27_14h03.15.253,AFC,2024.2.4,MacIntel,59.88023952,,,,,,,,,,,,,,,,,,,,,,141.0862,141.6016,3,53,13,Items_pictures/53_ice_cream.png,Items_pictures/13_crisps.png,6,2,0,1,right,13,0,1,35,0,35,0,1,,,,
,,052224,001,2026-03-27_14h03.15.253,AFC,2024.2.4,MacIntel,59.88023952,,,,,,,,,,,,,,,,,,,,,,141.603,142.1181,3,5,9,Items_pictures/5_bell_pepper.png,Items_pictures/9_healthy_cracker.png,1,1,1,1,left,5,0,1,36,0,36,0,1,,,,
,,052224,001,2026-03-27_14h03.15.253,AFC,2024.2.4,MacIntel,59.88023952,,,,,,,,,,,,,,,,,,,,,,142.1195,143.085,3,42,1,Items_pictures/42_chocolate_snack.png,Items_pictures/1_apple.png,5,1,0,0,right,1,0.4651,1,37,0,37,0,1,,,,
,,052224,001,2026-03-27_14h03.15.253,AFC,2024.2.4,MacIntel,59.88023952,,,,,,,,,,,,,,,,,,,,,,143.0864,143.6006,3,43,28,Items_pictures/43_chocolate_snack.png,Items_pictures/28_veg_burger.png,5,3,0,1,left,43,0,1,38,0,38,0,1,,,,
,,052224,001,2026-03-27_14h03.15.253,AFC,2024.2.4,MacIntel,59.88023952,,,,,,,,,,,,,,,,,,,,,,143.6019,144.1172,3,34,41,Items_pictures/34_donuts.png,Items_pictures/41_chocolate_snack.png,4,5,0,0,right,41,-2.84217E-14,1,39,0,39,0,1,,,,
,,052224,001,2026-03-27_14h03.15.253,AFC,2024.2.4,MacIntel,59.88023952,,,,,,,,,,,,,,,,,,,,,,144.1188,144.6688,3,53,9,Items_pictures/53_ice_cream.png,Items_pictures/9_healthy_cracker.png,6,1,0,1,right,9,0.0484,1,40,0,40,0,1,,,,
,,052224,001,2026-03-27_14h03.15.253,AFC,2024.2.4,MacIntel,59.88023952,,,,,,,,,,,,,,,,,,,,,,144.6701,145.2343,3,43,18,Items_pictures/43_chocolate_snack.png,Items_pictures/18_popcorn.png,5,2,0,1,left,43,0.0637,1,41,0,41,0,1,,,,
,,052224,001,2026-03-27_14h03.15.253,AFC,2024.2.4,MacIntel,59.88023952,,,,,,,,,,,,,,,,,,,,,,145.2357,145.8183,3,13,28,Items_pictures/13_crisps.png,Items_pictures/28_veg_burger.png,2,3,1,1,right,28,0.0656,1,42,0,42,0,1,,,,
,,052224,001,2026-03-27_14h03.15.253,AFC,2024.2.4,MacIntel,59.88023952,,,,,,,,,,,,,,,,,,,,,,145.8195,146.3339,3,15,56,Items_pictures/15_flute.png,Items_pictures/56_macaron.png,2,6,1,0,left,15,-0.0001,1,43,0,43,0,1,,,,
,,052224,001,2026-03-27_14h03.15.253,AFC,2024.2.4,MacIntel,59.88023952,,,,,,,,,,,,,,,,,,,,,,146.3352,146.8518,3,6,56,Items_pictures/6_strawberries.png,Items_pictures/56_macaron.png,1,6,0,0,right,56,0.0001,1,44,0,44,0,1,,,,
,,052224,001,2026-03-27_14h03.15.253,AFC,2024.2.4,MacIntel,59.88023952,,,,,,,,,,,,,,,,,,,,,,146.8532,147.3682,3,41,1,Items_pictures/41_chocolate_snack.png,Items_pictures/1_apple.png,5,1,0,0,left,41,0,1,45,0,45,0,1,,,,
,,052224,001,2026-03-27_14h03.15.253,AFC,2024.2.4,MacIntel,59.88023952,,,,,,,,,,,,,,,,,,,,,,147.3694,147.8849,3,39,42,Items_pictures/39_muffin.png,Items_pictures/42_chocolate_snack.png,4,5,0,0,right,42,0,1,46,0,46,0,1,,,,
,,052224,001,2026-03-27_14h03.15.253,AFC,2024.2.4,MacIntel,59.88023952,,,,,,,,,,,,,,,,,,,,,,147.8862,148.4006,3,34,28,Items_pictures/34_donuts.png,Items_pictures/28_veg_burger.png,4,3,0,1,left,34,-9.99999E-05,1,47,0,47,0,1,,,,
,,052224,001,2026-03-27_14h03.15.253,AFC,2024.2.4,MacIntel,59.88023952,,,,,,,,,,,,,,,,,,,,,,148.4018,148.9182,3,1,6,Items_pictures/1_apple.png,Items_pictures/6_strawberries.png,1,1,0,0,right,6,-2.3843E-10,1,48,0,48,0,1,,,,
,,052224,001,2026-03-27_14h03.15.253,AFC,2024.2.4,MacIntel,59.88023952,,,,,,,,,,,,,,,,,,,,,,148.9194,149.7184,3,9,37,Items_pictures/9_healthy_cracker.png,Items_pictures/37_pain_chocolat.png,1,4,1,0,right,37,0.2818,1,49,0,49,0,1,,,,
,,052224,001,2026-03-27_14h03.15.253,AFC,2024.2.4,MacIntel,59.88023952,,,,,,,,,,,,,,,,,,,,,,149.7196,150.3512,3,44,56,Items_pictures/44_chocolate_snack.png,Items_pictures/56_macaron.png,5,6,0,0,left,44,0.1153,1,50,0,50,0,1,,,,
,,052224,001,2026-03-27_14h03.15.253,AFC,2024.2.4,MacIntel,59.88023952,,,,,,,,,,,,,,,,,,,,,,150.352,150.8682,3,42,60,Items_pictures/42_chocolate_snack.png,Items_pictures/60_cupcake.png,5,6,0,0,right,60,-2.3843E-10,1,51,0,51,0,1,,,,
,,052224,001,2026-03-27_14h03.15.253,AFC,2024.2.4,MacIntel,59.88023952,,,,,,,,,,,,,,,,,,,,,,150.8696,151.3837,3,20,36,Items_pictures/20_tortillas.png,Items_pictures/36_pretzel.png,2,4,1,1,left,20,9.99999E-05,1,52,0,52,0,1,,,,
,,052224,001,2026-03-27_14h03.15.253,AFC,2024.2.4,MacIntel,59.88023952,,,,,,,,,,,,,,,,,,,,,,151.3845,151.885,3,9,42,Items_pictures/9_healthy_cracker.png,Items_pictures/42_chocolate_snack.png,1,5,1,0,right,42,-9.99999E-05,1,53,0,53,0,1,,,,
,,052224,001,2026-03-27_14h03.15.253,AFC,2024.2.4,MacIntel,59.88023952,,,,,,,,,,,,,,,,,,,,,,151.8867,152.7682,3,9,6,Items_pictures/9_healthy_cracker.png,Items_pictures/6_strawberries.png,1,1,1,0,left,9,0.3805,1,54,0,54,0,1,,,,
,,052224,001,2026-03-27_14h03.15.253,AFC,2024.2.4,MacIntel,59.88023952,,,,,,,,,,,,,,,,,,,,,,152.7695,153.2848,3,39,36,Items_pictures/39_muffin.png,Items_pictures/36_pretzel.png,4,4,0,1,right,36,-2.38401E-10,1,55,0,55,0,1,,,,
,,052224,001,2026-03-27_14h03.15.253,AFC,2024.2.4,MacIntel,59.88023952,,,,,,,,,,,,,,,,,,,,,,153.2862,153.8839,3,20,43,Items_pictures/20_tortillas.png,Items_pictures/43_chocolate_snack.png,2,5,1,0,left,20,0.0976,1,56,0,56,0,1,,,,
,,052224,001,2026-03-27_14h03.15.253,AFC,2024.2.4,MacIntel,59.88023952,,,,,,,,,,,,,,,,,,,,,,153.8852,154.4016,3,56,28,Items_pictures/56_macaron.png,Items_pictures/28_veg_burger.png,6,3,0,1,left,56,-0.0002,1,57,0,57,0,1,,,,
,,052224,001,2026-03-27_14h03.15.253,AFC,2024.2.4,MacIntel,59.88023952,,,,,,,,,,,,,,,,,,,,,,154.4031,155.3182,3,18,25,Items_pictures/18_popcorn.png,Items_pictures/25_fries.png,2,3,1,1,left,18,0.415,1,58,0,58,0,1,,,,
,,052224,001,2026-03-27_14h03.15.253,AFC,2024.2.4,MacIntel,59.88023952,,,,,,,,,,,,,,,,,,,,,,155.3197,156.2005,3,39,53,Items_pictures/39_muffin.png,Items_pictures/53_ice_cream.png,4,6,0,0,left,39,0.365,1,59,0,59,0,1,,,,
,,052224,001,2026-03-27_14h03.15.253,AFC,2024.2.4,MacIntel,59.88023952,,,,,,,,,,,,,,,,,,,,,,156.2019,156.7181,3,30,13,Items_pictures/30_onion_rings.png,Items_pictures/13_crisps.png,3,2,1,1,right,13,-2.84217E-14,1,60,0,60,0,1,,,,
,,052224,001,2026-03-27_14h03.15.253,AFC,2024.2.4,MacIntel,59.88023952,,,,,,,,,,,,,,,,,,,,,,156.7195,157.2682,3,56,53,Items_pictures/56_macaron.png,Items_pictures/53_ice_cream.png,6,6,0,0,left,56,0.0316,1,61,0,61,0,1,,,,
,,052224,001,2026-03-27_14h03.15.253,AFC,2024.2.4,MacIntel,59.88023952,,,,,,,,,,,,,,,,,,,,,,157.2697,158.134,3,25,44,Items_pictures/25_fries.png,Items_pictures/44_chocolate_snack.png,3,5,1,0,left,25,0.3639,1,62,0,62,0,1,,,,
,,052224,001,2026-03-27_14h03.15.253,AFC,2024.2.4,MacIntel,59.88023952,,,,,,,,,,,,,,,,,,,,,,158.1351,158.6505,3,18,13,Items_pictures/18_popcorn.png,Items_pictures/13_crisps.png,2,2,1,1,left,18,-0.0002,1,63,0,63,0,1,,,,
,,052224,001,2026-03-27_14h03.15.253,AFC,2024.2.4,MacIntel,59.88023952,,,,,,,,,,,,,,,,,,,,,,158.6516,159.4179,3,20,60,Items_pictures/20_tortillas.png,Items_pictures/60_cupcake.png,2,6,1,0,right,60,0.2497,1,64,0,64,0,1,,,,
,,052224,001,2026-03-27_14h03.15.253,AFC,2024.2.4,MacIntel,59.88023952,,,,,,,,,,,,,,,,,,,,,,159.4187,159.9349,3,30,22,Items_pictures/30_onion_rings.png,Items_pictures/22_veg_pizza.png,3,3,1,1,left,30,-9.99999E-05,1,65,0,65,0,1,,,,
,,052224,001,2026-03-27_14h03.15.253,AFC,2024.2.4,MacIntel,59.88023952,,,,,,,,,,,,,,,,,,,,,,159.9361,160.6849,3,41,6,Items_pictures/41_chocolate_snack.png,Items_pictures/6_strawberries.png,5,1,0,0,left,41,0.2314,1,66,0,66,0,1,,,,
,,052224,001,2026-03-27_14h03.15.253,AFC,2024.2.4,MacIntel,59.88023952,,,,,,,,,,,,,,,,,,,,,,160.6862,161.3017,3,36,9,Items_pictures/36_pretzel.png,Items_pictures/9_healthy_cracker.png,4,1,1,1,right,9,0.0984,1,67,0,67,0,1,,,,
,,052224,001,2026-03-27_14h03.15.253,AFC,2024.2.4,MacIntel,59.88023952,,,,,,,,,,,,,,,,,,,,,,161.3029,161.8839,3,1,20,Items_pictures/1_apple.png,Items_pictures/20_tortillas.png,1,2,0,1,left,1,0.0808,1,68,0,68,0,1,,,,
,,052224,001,2026-03-27_14h03.15.253,AFC,2024.2.4,MacIntel,59.88023952,,,,,,,,,,,,,,,,,,162.1679,162.7018,162.7019,163.1516,163.1541,163.6683,4,5,15,Items_pictures/5_bell_pepper.png,Items_pictures/15_flute.png,1,2,1,1,left,5,9.99997E-05,1,0,0,0,0,1,161.8856,162.1675,,
,,052224,001,2026-03-27_14h03.15.253,AFC,2024.2.4,MacIntel,59.88023952,,,,,,,,,,,,,,,,,,,,,,163.6696,164.1848,4,60,44,Items_pictures/60_cupcake.png,Items_pictures/44_chocolate_snack.png,6,5,0,0,left,60,-9.99999E-05,1,1,0,1,0,1,,,,
,,052224,001,2026-03-27_14h03.15.253,AFC,2024.2.4,MacIntel,59.88023952,,,,,,,,,,,,,,,,,,,,,,164.1861,165.0007,4,13,41,Items_pictures/13_crisps.png,Items_pictures/41_chocolate_snack.png,2,5,1,0,left,13,0.2983,1,2,0,2,0,1,,,,
,,052224,001,2026-03-27_14h03.15.253,AFC,2024.2.4,MacIntel,59.88023952,,,,,,,,,,,,,,,,,,,,,,165.0021,165.5182,4,41,53,Items_pictures/41_chocolate_snack.png,Items_pictures/53_ice_cream.png,5,6,0,0,right,53,-2.38458E-10,1,3,0,3,0,1,,,,
,,052224,001,2026-03-27_14h03.15.253,AFC,2024.2.4,MacIntel,59.88023952,,,,,,,,,,,,,,,,,,,,,,165.5196,166.0348,4,34,36,Items_pictures/34_donuts.png,Items_pictures/36_pretzel.png,4,4,0,1,left,34,-9.99999E-05,1,4,0,4,0,1,,,,
,,052224,001,2026-03-27_14h03.15.253,AFC,2024.2.4,MacIntel,59.88023952,,,,,,,,,,,,,,,,,,,,,,166.0361,166.5516,4,28,44,Items_pictures/28_veg_burger.png,Items_pictures/44_chocolate_snack.png,3,5,1,0,left,28,2.84217E-14,1,5,0,5,0,1,,,,
,,052224,001,2026-03-27_14h03.15.253,AFC,2024.2.4,MacIntel,59.88023952,,,,,,,,,,,,,,,,,,,,,,166.5529,167.4512,4,20,39,Items_pictures/20_tortillas.png,Items_pictures/39_muffin.png,2,4,1,0,right,39,0.3975,1,6,0,6,0,1,,,,
,,052224,001,2026-03-27_14h03.15.253,AFC,2024.2.4,MacIntel,59.88023952,,,,,,,,,,,,,,,,,,,,,,167.4525,167.9682,4,25,28,Items_pictures/25_fries.png,Items_pictures/28_veg_burger.png,3,3,1,1,right,28,-0.0001,1,7,0,7,0,1,,,,
,,052224,001,2026-03-27_14h03.15.253,AFC,2024.2.4,MacIntel,59.88023952,,,,,,,,,,,,,,,,,,,,,,167.9696,168.4839,4,36,55,Items_pictures/36_pretzel.png,Items_pictures/55_creme_brulee.png,4,6,1,0,right,55,0.0002,1,8,0,8,0,1,,,,
,,052224,001,2026-03-27_14h03.15.253,AFC,2024.2.4,MacIntel,59.88023952,,,,,,,,,,,,,,,,,,,,,,168.4852,169.0005,4,34,9,Items_pictures/34_donuts.png,Items_pictures/9_healthy_cracker.png,4,1,0,1,right,9,-9.99997E-05,1,9,0,9,0,1,,,,
,,052224,001,2026-03-27_14h03.15.253,AFC,2024.2.4,MacIntel,59.88023952,,,,,,,,,,,,,,,,,,,,,,169.0019,169.5182,4,60,1,Items_pictures/60_cupcake.png,Items_pictures/1_apple.png,6,1,0,0,left,60,0,1,10,0,10,0,1,,,,
,,052224,001,2026-03-27_14h03.15.253,AFC,2024.2.4,MacIntel,59.88023952,,,,,,,,,,,,,,,,,,,,,,169.5196,170.034,4,60,9,Items_pictures/60_cupcake.png,Items_pictures/9_healthy_cracker.png,6,1,0,1,left,60,-2.3843E-10,1,11,0,11,0,1,,,,
,,052224,001,2026-03-27_14h03.15.253,AFC,2024.2.4,MacIntel,59.88023952,,,,,,,,,,,,,,,,,,,,,,170.0355,170.9182,4,18,55,Items_pictures/18_popcorn.png,Items_pictures/55_creme_brulee.png,2,6,1,0,right,55,0.3659,1,12,0,12,0,1,,,,
,,052224,001,2026-03-27_14h03.15.253,AFC,2024.2.4,MacIntel,59.88023952,,,,,,,,,,,,,,,,,,,,,,170.9198,171.4343,4,9,1,Items_pictures/9_healthy_cracker.png,Items_pictures/1_apple.png,1,1,1,0,right,1,9.99999E-05,1,13,0,13,0,1,,,,
,,052224,001,2026-03-27_14h03.15.253,AFC,2024.2.4,MacIntel,59.88023952,,,,,,,,,,,,,,,,,,,,,,171.4356,172.1849,4,37,13,Items_pictures/37_pain_chocolat.png,Items_pictures/13_crisps.png,4,2,0,1,left,37,0.2482,1,14,0,14,0,1,,,,
,,052224,001,2026-03-27_14h03.15.253,AFC,2024.2.4,MacIntel,59.88023952,,,,,,,,,,,,,,,,,,,,,,172.1863,172.7019,4,39,30,Items_pictures/39_muffin.png,Items_pictures/30_onion_rings.png,4,3,0,1,left,39,0.0001,1,15,0,15,0,1,,,,
,,052224,001,2026-03-27_14h03.15.253,AFC,2024.2.4,MacIntel,59.88023952,,,,,,,,,,,,,,,,,,,,,,172.7034,173.4681,4,56,43,Items_pictures/56_macaron.png,Items_pictures/43_chocolate_snack.png,6,5,0,0,right,43,0.2646,1,16,0,16,0,1,,,,
,,052224,001,2026-03-27_14h03.15.253,AFC,2024.2.4,MacIntel,59.88023952,,,,,,,,,,,,,,,,,,,,,,173.4694,173.9848,4,15,36,Items_pictures/15_flute.png,Items_pictures/36_pretzel.png,2,4,1,1,left,15,-0.0003,1,17,0,17,0,1,,,,
,,052224,001,2026-03-27_14h03.15.253,AFC,2024.2.4,MacIntel,59.88023952,,,,,,,,,,,,,,,,,,,,,,173.9862,174.5015,4,56,36,Items_pictures/56_macaron.png,Items_pictures/36_pretzel.png,6,4,0,1,right,36,0.0001,1,18,0,18,0,1,,,,
,,052224,001,2026-03-27_14h03.15.253,AFC,2024.2.4,MacIntel,59.88023952,,,,,,,,,,,,,,,,,,,,,,174.5028,175.2176,4,1,18,Items_pictures/1_apple.png,Items_pictures/18_popcorn.png,1,2,0,1,right,18,0.1986,1,19,0,19,0,1,,,,
,,052224,001,2026-03-27_14h03.15.253,AFC,2024.2.4,MacIntel,59.88023952,,,,,,,,,,,,,,,,,,,,,,175.219,175.7342,4,5,28,Items_pictures/5_bell_pepper.png,Items_pictures/28_veg_burger.png,1,3,1,1,left,5,-9.99999E-05,1,20,0,20,0,1,,,,
,,052224,001,2026-03-27_14h03.15.253,AFC,2024.2.4,MacIntel,59.88023952,,,,,,,,,,,,,,,,,,,,,,175.7356,176.6172,4,15,41,Items_pictures/15_flute.png,Items_pictures/41_chocolate_snack.png,2,5,1,0,left,15,0.3658,1,21,0,21,0,1,,,,
,,052224,001,2026-03-27_14h03.15.253,AFC,2024.2.4,MacIntel,59.88023952,,,,,,,,,,,,,,,,,,,,,,176.6186,177.5348,4,41,42,Items_pictures/41_chocolate_snack.png,Items_pictures/42_chocolate_snack.png,5,5,0,0,right,42,0.4151,1,22,0,22,0,1,,,,
,,052224,001,2026-03-27_14h03.15.253,AFC,2024.2.4,MacIntel,59.88023952,,,,,,,,,,,,,,,,,,,,,,177.5362,178.051,4,43,36,Items_pictures/43_chocolate_snack.png,Items_pictures/36_pretzel.png,5,4,0,1,right,36,2.3843E-10,1,23,0,23,0,1,,,,
,,052224,001,2026-03-27_14h03.15.253,AFC,2024.2.4,MacIntel,59.88023952,,,,,,,,,,,,,,,,,,,,,,178.0523,178.8681,4,1,13,Items_pictures/1_apple.png,Items_pictures/13_crisps.png,1,2,0,1,right,13,0.3154,1,24,0,24,0,1,,,,
,,052224,001,2026-03-27_14h03.15.253,AFC,2024.2.4,MacIntel,59.88023952,,,,,,,,,,,,,,,,,,,,,,178.8694,179.3848,4,30,5,Items_pictures/30_onion_rings.png,Items_pictures/5_bell_pepper.png,3,1,1,1,right,5,9.99999E-05,1,25,0,25,0,1,,,,
,,052224,001,2026-03-27_14h03.15.253,AFC,2024.2.4,MacIntel,59.88023952,,,,,,,,,,,,,,,,,,,,,,179.3861,179.9015,4,42,55,Items_pictures/42_chocolate_snack.png,Items_pictures/55_creme_brulee.png,5,6,0,0,right,55,0.0001,1,26,0,26,0,1,,,,
,,052224,001,2026-03-27_14h03.15.253,AFC,2024.2.4,MacIntel,59.88023952,,,,,,,,,,,,,,,,,,,,,,179.9029,180.4181,4,42,28,Items_pictures/42_chocolate_snack.png,Items_pictures/28_veg_burger.png,5,3,0,1,left,42,-9.99999E-05,1,27,0,27,0,1,,,,
,,052224,001,2026-03-27_14h03.15.253,AFC,2024.2.4,MacIntel,59.88023952,,,,,,,,,,,,,,,,,,,,,,180.4193,180.9338,4,15,34,Items_pictures/15_flute.png,Items_pictures/34_donuts.png,2,4,1,0,left,15,-2.38401E-10,1,28,0,28,0,1,,,,
,,052224,001,2026-03-27_14h03.15.253,AFC,2024.2.4,MacIntel,59.88023952,,,,,,,,,,,,,,,,,,,,,,180.9351,181.4515,4,41,43,Items_pictures/41_chocolate_snack.png,Items_pictures/43_chocolate_snack.png,5,5,0,0,left,41,9.99999E-05,1,29,0,29,0,1,,,,
,,052224,001,2026-03-27_14h03.15.253,AFC,2024.2.4,MacIntel,59.88023952,,,,,,,,,,,,,,,,,,,,,,181.4527,182.0509,4,55,22,Items_pictures/55_creme_brulee.png,Items_pictures/22_veg_pizza.png,6,3,0,1,left,55,0.0821,1,30,0,30,0,1,,,,
,,052224,001,2026-03-27_14h03.15.253,AFC,2024.2.4,MacIntel,59.88023952,,,,,,,,,,,,,,,,,,,,,,182.0523,182.6684,4,43,44,Items_pictures/43_chocolate_snack.png,Items_pictures/44_chocolate_snack.png,5,5,0,0,left,43,0.1153,1,31,0,31,0,1,,,,
,,052224,001,2026-03-27_14h03.15.253,AFC,2024.2.4,MacIntel,59.88023952,,,,,,,,,,,,,,,,,,,,,,182.6698,183.2671,4,55,44,Items_pictures/55_creme_brulee.png,Items_pictures/44_chocolate_snack.png,6,5,0,0,right,44,0.0815,1,32,0,32,0,1,,,,
,,052224,001,2026-03-27_14h03.15.253,AFC,2024.2.4,MacIntel,59.88023952,,,,,,,,,,,,,,,,,,,,,,183.2686,183.7848,4,20,6,Items_pictures/20_tortillas.png,Items_pictures/6_strawberries.png,2,1,1,0,right,6,9.99999E-05,1,33,0,33,0,1,,,,
,,052224,001,2026-03-27_14h03.15.253,AFC,2024.2.4,MacIntel,59.88023952,,,,,,,,,,,,,,,,,,,,,,183.786,184.3008,4,42,20,Items_pictures/42_chocolate_snack.png,Items_pictures/20_tortillas.png,5,2,0,1,right,20,0,1,34,0,34,0,1,,,,
,,052224,001,2026-03-27_14h03.15.253,AFC,2024.2.4,MacIntel,59.88023952,,,,,,,,,,,,,,,,,,,,,,184.302,185.1506,4,56,5,Items_pictures/56_macaron.png,Items_pictures/5_bell_pepper.png,6,1,0,1,right,5,0.3326,1,35,0,35,0,1,,,,
,,052224,001,2026-03-27_14h03.15.253,AFC,2024.2.4,MacIntel,59.88023952,,,,,,,,,,,,,,,,,,,,,,185.1519,185.668,4,1,43,Items_pictures/1_apple.png,Items_pictures/43_chocolate_snack.png,1,5,0,0,right,43,0.0001,1,36,0,36,0,1,,,,
,,052224,001,2026-03-27_14h03.15.253,AFC,2024.2.4,MacIntel,59.88023952,,,,,,,,,,,,,,,,,,,,,,185.6692,186.385,4,39,43,Items_pictures/39_muffin.png,Items_pictures/43_chocolate_snack.png,4,5,0,0,left,39,0.1987,1,37,0,37,0,1,,,,
,,052224,001,2026-03-27_14h03.15.253,AFC,2024.2.4,MacIntel,59.88023952,,,,,,,,,,,,,,,,,,,,,,186.3864,186.9671,4,15,1,Items_pictures/15_flute.png,Items_pictures/1_apple.png,2,1,1,0,right,1,0.0642,1,38,0,38,0,1,,,,
,,052224,001,2026-03-27_14h03.15.253,AFC,2024.2.4,MacIntel,59.88023952,,,,,,,,,,,,,,,,,,,,,,186.9686,187.484,4,34,6,Items_pictures/34_donuts.png,Items_pictures/6_strawberries.png,4,1,0,0,left,34,-2.38401E-10,1,39,0,39,0,1,,,,
,,052224,001,2026-03-27_14h03.15.253,AFC,2024.2.4,MacIntel,59.88023952,,,,,,,,,,,,,,,,,,,,,,187.4853,188.3015,4,22,5,Items_pictures/22_veg_pizza.png,Items_pictures/5_bell_pepper.png,3,1,1,1,left,22,0.3151,1,40,0,40,0,1,,,,
,,052224,001,2026-03-27_14h03.15.253,AFC,2024.2.4,MacIntel,59.88023952,,,,,,,,,,,,,,,,,,,,,,188.3029,188.8181,4,6,18,Items_pictures/6_strawberries.png,Items_pictures/18_popcorn.png,1,2,0,1,left,6,9.99999E-05,1,41,0,41,0,1,,,,
,,052224,001,2026-03-27_14h03.15.253,AFC,2024.2.4,MacIntel,59.88023952,,,,,,,,,,,,,,,,,,,,,,188.8194,189.3348,4,30,34,Items_pictures/30_onion_rings.png,Items_pictures/34_donuts.png,3,4,1,0,left,30,2.84217E-14,1,42,0,42,0,1,,,,
,,052224,001,2026-03-27_14h03.15.253,AFC,2024.2.4,MacIntel,59.88023952,,,,,,,,,,,,,,,,,,,,,,189.336,190.1848,4,28,18,Items_pictures/28_veg_burger.png,Items_pictures/18_popcorn.png,3,2,1,1,right,18,0.3486,1,43,0,43,0,1,,,,
,,052224,001,2026-03-27_14h03.15.253,AFC,2024.2.4,MacIntel,59.88023952,,,,,,,,,,,,,,,,,,,,,,190.1861,190.7005,4,36,44,Items_pictures/36_pretzel.png,Items_pictures/44_chocolate_snack.png,4,5,1,0,left,36,0,1,44,0,44,0,1,,,,
,,052224,001,2026-03-27_14h03.15.253,AFC,2024.2.4,MacIntel,59.88023952,,,,,,,,,,,,,,,,,,,,,,190.7021,191.6009,4,41,5,Items_pictures/41_chocolate_snack.png,Items_pictures/5_bell_pepper.png,5,1,0,1,left,41,0.3982,1,45,0,45,0,1,,,,
,,052224,001,2026-03-27_14h03.15.253,AFC,2024.2.4,MacIntel,59.88023952,,,,,,,,,,,,,,,,,,,,,,191.6021,192.1516,4,30,42,Items_pictures/30_onion_rings.png,Items_pictures/42_chocolate_snack.png,3,5,1,0,right,42,0.0325,1,46,0,46,0,1,,,,
,,052224,001,2026-03-27_14h03.15.253,AFC,2024.2.4,MacIntel,59.88023952,,,,,,,,,,,,,,,,,,,,,,192.1528,192.6674,4,20,34,Items_pictures/20_tortillas.png,Items_pictures/34_donuts.png,2,4,1,0,right,34,0.0002,1,47,0,47,0,1,,,,
,,052224,001,2026-03-27_14h03.15.253,AFC,2024.2.4,MacIntel,59.88023952,,,,,,,,,,,,,,,,,,,,,,192.6709,193.5839,4,9,43,Items_pictures/9_healthy_cracker.png,Items_pictures/43_chocolate_snack.png,1,5,1,0,left,9,0.4126,1,48,0,48,0,1,,,,
,,052224,001,2026-03-27_14h03.15.253,AFC,2024.2.4,MacIntel,59.88023952,,,,,,,,,,,,,,,,,,,,,,193.5852,194.1015,4,60,34,Items_pictures/60_cupcake.png,Items_pictures/34_donuts.png,6,4,0,0,left,60,0.0001,1,49,0,49,0,1,,,,
,,052224,001,2026-03-27_14h03.15.253,AFC,2024.2.4,MacIntel,59.88023952,,,,,,,,,,,,,,,,,,,,,,194.1028,194.6173,4,39,22,Items_pictures/39_muffin.png,Items_pictures/22_veg_pizza.png,4,3,0,1,left,39,0,1,50,0,50,0,1,,,,
,,052224,001,2026-03-27_14h03.15.253,AFC,2024.2.4,MacIntel,59.88023952,,,,,,,,,,,,,,,,,,,,,,194.6186,195.1347,4,5,34,Items_pictures/5_bell_pepper.png,Items_pictures/34_donuts.png,1,4,1,0,left,5,9.99999E-05,1,51,0,51,0,1,,,,
,,052224,001,2026-03-27_14h03.15.253,AFC,2024.2.4,MacIntel,59.88023952,,,,,,,,,,,,,,,,,,,,,,195.136,195.6518,4,6,44,Items_pictures/6_strawberries.png,Items_pictures/44_chocolate_snack.png,1,5,0,0,left,6,-0.0002,1,52,0,52,0,1,,,,
,,052224,001,2026-03-27_14h03.15.253,AFC,2024.2.4,MacIntel,59.88023952,,,,,,,,,,,,,,,,,,,,,,195.6529,196.1682,4,28,53,Items_pictures/28_veg_burger.png,Items_pictures/53_ice_cream.png,3,6,1,0,right,53,0,1,53,0,53,0,1,,,,
,,052224,001,2026-03-27_14h03.15.253,AFC,2024.2.4,MacIntel,59.88023952,,,,,,,,,,,,,,,,,,,,,,196.1696,196.7347,4,43,5,Items_pictures/43_chocolate_snack.png,Items_pictures/5_bell_pepper.png,5,1,0,1,left,43,0.0645,1,54,0,54,0,1,,,,
,,052224,001,2026-03-27_14h03.15.253,AFC,2024.2.4,MacIntel,59.88023952,,,,,,,,,,,,,,,,,,,,,,196.7361,197.2514,4,5,1,Items_pictures/5_bell_pepper.png,Items_pictures/1_apple.png,1,1,1,0,right,1,2.38401E-10,1,55,0,55,0,1,,,,
,,052224,001,2026-03-27_14h03.15.253,AFC,2024.2.4,MacIntel,59.88023952,,,,,,,,,,,,,,,,,,,,,,197.2518,197.7848,4,25,56,Items_pictures/25_fries.png,Items_pictures/56_macaron.png,3,6,1,0,left,25,0.0326,1,56,0,56,0,1,,,,
,,052224,001,2026-03-27_14h03.15.253,AFC,2024.2.4,MacIntel,59.88023952,,,,,,,,,,,,,,,,,,,,,,197.7863,198.3838,4,37,15,Items_pictures/37_pain_chocolat.png,Items_pictures/15_flute.png,4,2,0,1,left,37,0.0816,1,57,0,57,0,1,,,,
,,052224,001,2026-03-27_14h03.15.253,AFC,2024.2.4,MacIntel,59.88023952,,,,,,,,,,,,,,,,,,,,,,198.3852,198.9014,4,55,60,Items_pictures/55_creme_brulee.png,Items_pictures/60_cupcake.png,6,6,0,0,left,55,2.84217E-14,1,58,0,58,0,1,,,,
,,052224,001,2026-03-27_14h03.15.253,AFC,2024.2.4,MacIntel,59.88023952,,,,,,,,,,,,,,,,,,,,,,198.9026,199.418,4,42,6,Items_pictures/42_chocolate_snack.png,Items_pictures/6_strawberries.png,5,1,0,0,right,6,-0.0001,1,59,0,59,0,1,,,,
,,052224,001,2026-03-27_14h03.15.253,AFC,2024.2.4,MacIntel,59.88023952,,,,,,,,,,,,,,,,,,,,,,199.4194,199.9348,4,6,15,Items_pictures/6_strawberries.png,Items_pictures/15_flute.png,1,2,0,1,left,6,2.38401E-10,1,60,0,60,0,1,,,,
,,052224,001,2026-03-27_14h03.15.253,AFC,2024.2.4,MacIntel,59.88023952,,,,,,,,,,,,,,,,,,,,,,199.9363,201.0343,4,34,18,Items_pictures/34_donuts.png,Items_pictures/18_popcorn.png,4,2,0,1,right,18,0.5816,1,61,0,61,0,1,,,,
,,052224,001,2026-03-27_14h03.15.253,AFC,2024.2.4,MacIntel,59.88023952,,,,,,,,,,,,,,,,,,,,,,201.0357,201.5505,4,43,34,Items_pictures/43_chocolate_snack.png,Items_pictures/34_donuts.png,5,4,0,0,right,34,0,1,62,0,62,0,1,,,,
,,052224,001,2026-03-27_14h03.15.253,AFC,2024.2.4,MacIntel,59.88023952,,,,,,,,,,,,,,,,,,,,,,201.5519,202.5514,4,25,60,Items_pictures/25_fries.png,Items_pictures/60_cupcake.png,3,6,1,0,left,25,0.4984,1,63,0,63,0,1,,,,
,,052224,001,2026-03-27_14h03.15.253,AFC,2024.2.4,MacIntel,59.88023952,,,,,,,,,,,,,,,,,,,,,,202.5528,203.4351,4,36,28,Items_pictures/36_pretzel.png,Items_pictures/28_veg_burger.png,4,3,1,1,left,36,0.3817,1,64,0,64,0,1,,,,
,,052224,001,2026-03-27_14h03.15.253,AFC,2024.2.4,MacIntel,59.88023952,,,,,,,,,,,,,,,,,,,,,,203.4365,203.9681,4,13,44,Items_pictures/13_crisps.png,Items_pictures/44_chocolate_snack.png,2,5,1,0,right,44,0.0312,1,65,0,65,0,1,,,,
,,052224,001,2026-03-27_14h03.15.253,AFC,2024.2.4,MacIntel,59.88023952,,,,,,,,,,,,,,,,,,,,,,203.9694,204.4839,4,44,5,Items_pictures/44_chocolate_snack.png,Items_pictures/5_bell_pepper.png,5,1,0,1,left,44,-9.99999E-05,1,66,0,66,0,1,,,,
,,052224,001,2026-03-27_14h03.15.253,AFC,2024.2.4,MacIntel,59.88023952,,,,,,,,,,,,,,,,,,,,,,204.4852,205.0004,4,36,6,Items_pictures/36_pretzel.png,Items_pictures/6_strawberries.png,4,1,1,0,right,6,9.99999E-05,1,67,0,67,0,1,,,,
,,052224,001,2026-03-27_14h03.15.253,AFC,2024.2.4,MacIntel,59.88023952,,,,,,,,,,,,,,,,,,,,,,205.0017,205.5179,4,56,9,Items_pictures/56_macaron.png,Items_pictures/9_healthy_cracker.png,6,1,0,1,left,56,0,1,68,0,68,0,1,,,,
,,052224,001,2026-03-27_14h03.15.253,AFC,2024.2.4,MacIntel,59.88023952,,,,,,,,,,,,,,,,,,,,,,,,,,,,,,,,,,,,,,,,,,205.5193,205.7839,205.7846,208.8014
