ruleOrder,Setup.started,Setup.stopped,participant,session,date,expName,psychopyVersion,OS,frameRate,GNG_instructions.started,GNG_instructions.stopped,Practice_instructions.started,Practice_instructions.stopped,Fixation.started,Fixation.stopped,Practice.started,Practice.stopped,ITI.started,ITI.stopped,practice_loop.thisRepN,practice_loop.thisTrialN,practice_loop.thisN,practice_loop.thisIndex,practice_loop.ran,Food_item,Food_name,Category,Cat_name,Meat,Image_file0,Cond,Practice_image_file,Block_start_2.started,Block_start_2.stopped,Trial.started,Trial.stopped,responded,rt,resp_source,isGo,hit,miss,false_alarm,correct_rejection,trial_loop.thisRepN,trial_loop.thisTrialN,trial_loop.thisN,trial_loop.thisIndex,trial_loop.ran,block_loop.thisRepN,block_loop.thisTrialN,block_loop.thisN,block_loop.thisIndex,block_loop.ran,Bye.started,Bye.stopped
1,0.009,0.009,hugofraud,001,2026-04-13_11h02.34.755,GNG,2024.2.4,Win32,60.0240096,,,,,,,,,,,,,,,,,,,,,,,,,,,,,,,,,,,,,,,,,,,,,,,
,,,hugofraud,001,2026-04-13_11h02.34.755,GNG,2024.2.4,Win32,60.0240096,0.009,57.232,,,,,,,,,,,,,,,,,,,,,,,,,,,,,,,,,,,,,,,,,,,,,
,,,hugofraud,001,2026-04-13_11h02.34.755,GNG,2024.2.4,Win32,60.0240096,,,57.232,59.632,,,,,,,,,,,,,,,,,,,,,,,,,,,,,,,,,,,,,,,,,,,
,,,hugofraud,001,2026-04-13_11h02.34.755,GNG,2024.2.4,Win32,60.0240096,,,,,59.633,59.933,,,,,,,,,,,,,,,,,,,,,,,,,,,,,,,,,,,,,,,,,
,,,hugofraud,001,2026-04-13_11h02.34.755,GNG,2024.2.4,Win32,60.0240096,,,,,,,59.936,60.517,60.783,61.367,0,0,0,1,1,2,,0,Practice,0,Practice_kiwi,0,Practice_pictures/Practice_kiwi.png,,,,,,,,,,,,,,,,,,,,,,,,
,,,hugofraud,001,2026-04-13_11h02.34.755,GNG,2024.2.4,Win32,60.0240096,,,,,,,61.368,61.85,62.102,62.754,0,1,1,3,1,4,,0,Practice,0,Practice_cake,0,Practice_pictures/Practice_cake.png,,,,,,,,,,,,,,,,,,,,,,,,
,,,hugofraud,001,2026-04-13_11h02.34.755,GNG,2024.2.4,Win32,60.0240096,,,,,,,62.757,64.002,64.269,64.585,0,2,2,2,1,3,,0,Practice,0,Practice_sushi,1,Practice_pictures/Practice_sushi.png,,,,,,,,,,,,,,,,,,,,,,,,
,,,hugofraud,001,2026-04-13_11h02.34.755,GNG,2024.2.4,Win32,60.0240096,,,,,,,64.586,65.386,65.653,65.953,0,3,3,0,1,1,,0,Practice,0,Practice_brocoli.png,1,Practice_pictures/Practice_brocoli.png,,,,,,,,,,,,,,,,,,,,,,,,
,,,hugofraud,001,2026-04-13_11h02.34.755,GNG,2024.2.4,Win32,60.0240096,,,,,67.072,67.371,,,69.221,69.99,,,,,,1,Apple slice,1,,,,0,,65.955,67.071,67.372,68.971,0,,none,1,0,1,0,0,0,0,0,0,1,,,,,,,
,,,hugofraud,001,2026-04-13_11h02.34.755,GNG,2024.2.4,Win32,60.0240096,,,,,,,,,70.639,71.039,,,,,,6,Cut strawberry,1,,,,0,,,,69.99,70.388,1,0.326,kb,1,1,0,0,0,1,0,1,0,1,,,,,,,
,,,hugofraud,001,2026-04-13_11h02.34.755,GNG,2024.2.4,Win32,60.0240096,,,,,,,,,72.456,72.89,,,,,,39,Muffin,4,,,,0,,,,71.039,72.206,1,1.084,kb,1,1,0,0,0,2,0,2,0,1,,,,,,,
,,,hugofraud,001,2026-04-13_11h02.34.755,GNG,2024.2.4,Win32,60.0240096,,,,,,,,,73.691,74.09,,,,,,54,Ice cream cone,6,,,,0,,,,72.89,73.439,1,0.47,kb,1,1,0,0,0,3,0,3,0,1,,,,,,,
,,,hugofraud,001,2026-04-13_11h02.34.755,GNG,2024.2.4,Win32,60.0240096,,,,,,,,,75.942,76.608,,,,,,41,"Chocolate snacks (e.g. Kinder, Knoppers)",5,,,,0,,,,74.09,75.691,0,,none,1,0,1,0,0,4,0,4,0,1,,,,,,,
,,,hugofraud,001,2026-04-13_11h02.34.755,GNG,2024.2.4,Win32,60.0240096,,,,,,,,,78.459,78.96,,,,,,33,Cinnamon roll,4,,,,0,,,,76.609,78.208,0,,none,1,0,1,0,0,5,0,5,0,1,,,,,,,
,,,hugofraud,001,2026-04-13_11h02.34.755,GNG,2024.2.4,Win32,60.0240096,,,,,,,,,80.81,81.528,,,,,,11,Crisps,2,,,,1,,,,78.961,80.56,0,,none,0,0,0,0,1,6,0,6,0,1,,,,,,,
,,,hugofraud,001,2026-04-13_11h02.34.755,GNG,2024.2.4,Win32,60.0240096,,,,,,,,,82.762,83.229,,,,,,47,Gummy candies,5,,,,0,,,,81.528,82.511,1,0.9,kb,1,1,0,0,0,7,0,7,0,1,,,,,,,
,,,hugofraud,001,2026-04-13_11h02.34.755,GNG,2024.2.4,Win32,60.0240096,,,,,,,,,85.08,85.396,,,,,,57,Fondant au chocolat,6,,,,0,,,,83.229,84.829,0,,none,1,0,1,0,0,8,0,8,0,1,,,,,,,
,,,hugofraud,001,2026-04-13_11h02.34.755,GNG,2024.2.4,Win32,60.0240096,,,,,,,,,86.529,86.847,,,,,,1,Apple slice,1,,,,0,,,,85.396,86.279,1,0.8,kb,1,1,0,0,0,9,0,9,0,1,,,,,,,
,,,hugofraud,001,2026-04-13_11h02.34.755,GNG,2024.2.4,Win32,60.0240096,,,,,,,,,88.698,89.298,,,,,,12,Crisps,2,,,,1,,,,86.847,88.447,0,,none,0,0,0,0,1,10,0,10,0,1,,,,,,,
,,,hugofraud,001,2026-04-13_11h02.34.755,GNG,2024.2.4,Win32,60.0240096,,,,,,,,,91.15,91.6,,,,,,24,Burger (beef),3,,,,1,,,,89.299,90.899,0,,none,0,0,0,0,1,11,0,11,0,1,,,,,,,
,,,hugofraud,001,2026-04-13_11h02.34.755,GNG,2024.2.4,Win32,60.0240096,,,,,,,,,93.451,93.917,,,,,,31,Croissant,4,,,,0,,,,91.6,93.2,0,,none,1,0,1,0,0,12,0,12,0,1,,,,,,,
,,,hugofraud,001,2026-04-13_11h02.34.755,GNG,2024.2.4,Win32,60.0240096,,,,,,,,,94.919,95.652,,,,,,37,Pain au chocolat,4,,,,0,,,,93.917,94.668,1,0.673,kb,1,1,0,0,0,13,0,13,0,1,,,,,,,
,,,hugofraud,001,2026-04-13_11h02.34.755,GNG,2024.2.4,Win32,60.0240096,,,,,,,,,97.502,98.135,,,,,,27,Kebab,3,,,,1,,,,95.654,97.252,0,,none,0,0,0,0,1,14,0,14,0,1,,,,,,,
,,,hugofraud,001,2026-04-13_11h02.34.755,GNG,2024.2.4,Win32,60.0240096,,,,,,,,,101.641,101.642,,,,,,50,Chocolate biscuit,5,,,,0,,,,98.136,100.637,0,,none,1,0,1,0,0,15,0,15,0,1,,,,,,,
,,,hugofraud,001,2026-04-13_11h02.34.755,GNG,2024.2.4,Win32,60.0240096,,,,,,,,,103.907,104.406,,,,,,12,Crisps,2,,,,1,,,,101.642,103.657,0,,none,0,0,0,0,1,16,0,16,0,1,,,,,,,
,,,hugofraud,001,2026-04-13_11h02.34.755,GNG,2024.2.4,Win32,60.0240096,,,,,,,,,106.256,106.791,,,,,,39,Muffin,4,,,,0,,,,104.406,106.006,0,,none,1,0,1,0,0,17,0,17,0,1,,,,,,,
,,,hugofraud,001,2026-04-13_11h02.34.755,GNG,2024.2.4,Win32,60.0240096,,,,,,,,,108.292,108.674,,,,,,31,Croissant,4,,,,0,,,,106.791,108.025,1,1.167,tap,1,1,0,0,0,18,0,18,0,1,,,,,,,
,,,hugofraud,001,2026-04-13_11h02.34.755,GNG,2024.2.4,Win32,60.0240096,,,,,,,,,109.075,109.51,,,,,,30,Onion rings,3,,,,1,,,,108.674,108.825,1,0.082,kb,0,0,0,1,0,19,0,19,0,1,,,,,,,
,,,hugofraud,001,2026-04-13_11h02.34.755,GNG,2024.2.4,Win32,60.0240096,,,,,,,,,111.359,112.127,,,,,,16,"Salted nuts (Cashew, peanuts, pistacchios)",2,,,,1,,,,109.51,111.109,0,,none,0,0,0,0,1,20,0,20,0,1,,,,,,,
,,,hugofraud,001,2026-04-13_11h02.34.755,GNG,2024.2.4,Win32,60.0240096,,,,,,,,,112.727,113.093,,,,,,44,Chocolate bar,5,,,,0,,,,112.127,112.46,1,0.267,tap,1,1,0,0,0,21,0,21,0,1,,,,,,,
,,,hugofraud,001,2026-04-13_11h02.34.755,GNG,2024.2.4,Win32,60.0240096,,,,,,,,,114.444,114.778,,,,,,47,Gummy candies,5,,,,0,,,,113.093,114.194,1,1.017,kb,1,1,0,0,0,22,0,22,0,1,,,,,,,
,,,hugofraud,001,2026-04-13_11h02.34.755,GNG,2024.2.4,Win32,60.0240096,,,,,,,,,115.996,116.679,,,,,,47,Gummy candies,5,,,,0,,,,114.778,115.729,1,0.873,kb,1,1,0,0,0,23,0,23,0,1,,,,,,,
,,,hugofraud,001,2026-04-13_11h02.34.755,GNG,2024.2.4,Win32,60.0240096,,,,,,,,,118.53,118.98,,,,,,1,Apple slice,1,,,,0,,,,116.68,118.279,0,,none,1,0,1,0,0,24,0,24,0,1,,,,,,,
,,,hugofraud,001,2026-04-13_11h02.34.755,GNG,2024.2.4,Win32,60.0240096,,,,,,,,,120.364,120.964,,,,,,2,Cucumber slice,1,,,,1,,,,118.981,120.114,1,1.067,tap,0,0,0,1,0,25,0,25,0,1,,,,,,,
,,,hugofraud,001,2026-04-13_11h02.34.755,GNG,2024.2.4,Win32,60.0240096,,,,,,,,,122.832,123.152,,,,,,37,Pain au chocolat,4,,,,0,,,,120.964,122.565,0,,none,1,0,1,0,0,26,0,26,0,1,,,,,,,
,,,hugofraud,001,2026-04-13_11h02.34.755,GNG,2024.2.4,Win32,60.0240096,,,,,,,,,125.003,125.7,,,,,,6,Cut strawberry,1,,,,0,,,,123.152,124.75,0,,none,1,0,1,0,0,27,0,27,0,1,,,,,,,
,,,hugofraud,001,2026-04-13_11h02.34.755,GNG,2024.2.4,Win32,60.0240096,,,,,,,,,127,127.502,,,,,,41,"Chocolate snacks (e.g. Kinder, Knoppers)",5,,,,0,,,,125.7,126.734,1,0.984,tap,1,1,0,0,0,28,0,28,0,1,,,,,,,
,,,hugofraud,001,2026-04-13_11h02.34.755,GNG,2024.2.4,Win32,60.0240096,,,,,,,,,128.334,128.685,,,,,,58,Mochi,6,,,,0,,,,127.502,128.084,1,0.491,kb,1,1,0,0,0,29,0,29,0,1,,,,,,,
,,,hugofraud,001,2026-04-13_11h02.34.755,GNG,2024.2.4,Win32,60.0240096,,,,,,,,,130.037,130.702,,,,,,57,Fondant au chocolat,6,,,,0,,,,128.685,129.785,1,1.018,kb,1,1,0,0,0,30,0,30,0,1,,,,,,,
,,,hugofraud,001,2026-04-13_11h02.34.755,GNG,2024.2.4,Win32,60.0240096,,,,,,,,,132.554,132.907,,,,,,33,Cinnamon roll,4,,,,0,,,,130.702,132.304,0,,none,1,0,1,0,0,31,0,31,0,1,,,,,,,
,,,hugofraud,001,2026-04-13_11h02.34.755,GNG,2024.2.4,Win32,60.0240096,,,,,,,,,133.273,134.055,,,,,,24,Burger (beef),3,,,,1,,,,132.908,133.014,1,0.034,kb,0,0,0,1,0,32,0,32,0,1,,,,,,,
,,,hugofraud,001,2026-04-13_11h02.34.755,GNG,2024.2.4,Win32,60.0240096,,,,,,,,,135.372,136.139,,,,,,1,Apple slice,1,,,,0,,,,134.055,135.107,1,0.996,kb,1,1,0,0,0,33,0,33,0,1,,,,,,,
,,,hugofraud,001,2026-04-13_11h02.34.755,GNG,2024.2.4,Win32,60.0240096,,,,,,,,,137.556,138.241,,,,,,39,Muffin,4,,,,0,,,,136.139,137.29,1,1.084,kb,1,1,0,0,0,34,0,34,0,1,,,,,,,
,,,hugofraud,001,2026-04-13_11h02.34.755,GNG,2024.2.4,Win32,60.0240096,,,,,,,,,139.358,140.009,,,,,,57,Fondant au chocolat,6,,,,0,,,,138.242,139.107,1,0.788,kb,1,1,0,0,0,35,0,35,0,1,,,,,,,
,,,hugofraud,001,2026-04-13_11h02.34.755,GNG,2024.2.4,Win32,60.0240096,,,,,,,,,141.144,141.708,,,,,,53,Ice cream cup,6,,,,0,,,,140.009,140.878,1,0.791,kb,1,1,0,0,0,36,0,36,0,1,,,,,,,
,,,hugofraud,001,2026-04-13_11h02.34.755,GNG,2024.2.4,Win32,60.0240096,,,,,,,,,143.56,143.86,,,,,,33,Cinnamon roll,4,,,,0,,,,141.708,143.296,0,,none,1,0,1,0,0,37,0,37,0,1,,,,,,,
,,,hugofraud,001,2026-04-13_11h02.34.755,GNG,2024.2.4,Win32,60.0240096,,,,,,,,,144.643,145.044,,,,,,10,"Dried fruits (apricot, mango)",1,,,,0,,,,143.86,144.377,1,0.449,kb,1,1,0,0,0,38,0,38,0,1,,,,,,,
,,,hugofraud,001,2026-04-13_11h02.34.755,GNG,2024.2.4,Win32,60.0240096,,,,,,,,,146.901,147.437,,,,,,54,Ice cream cone,6,,,,0,,,,145.044,146.632,0,,none,1,0,1,0,0,39,0,39,0,1,,,,,,,
,,,hugofraud,001,2026-04-13_11h02.34.755,GNG,2024.2.4,Win32,60.0240096,,,,,,,,,148.297,148.913,,,,,,10,"Dried fruits (apricot, mango)",1,,,,0,,,,147.437,148.037,1,0.528,kb,1,1,0,0,0,40,0,40,0,1,,,,,,,
,,,hugofraud,001,2026-04-13_11h02.34.755,GNG,2024.2.4,Win32,60.0240096,,,,,,,,,150.763,151.297,,,,,,37,Pain au chocolat,4,,,,0,,,,148.913,150.513,0,,none,1,0,1,0,0,41,0,41,0,1,,,,,,,
,,,hugofraud,001,2026-04-13_11h02.34.755,GNG,2024.2.4,Win32,60.0240096,,,,,,,,,152.081,152.414,,,,,,31,Croissant,4,,,,0,,,,151.297,151.83,1,0.473,kb,1,1,0,0,0,42,0,42,0,1,,,,,,,
,,,hugofraud,001,2026-04-13_11h02.34.755,GNG,2024.2.4,Win32,60.0240096,,,,,,,,,153.298,153.749,,,,,,41,"Chocolate snacks (e.g. Kinder, Knoppers)",5,,,,0,,,,152.415,153.048,1,0.559,kb,1,1,0,0,0,43,0,43,0,1,,,,,,,
,,,hugofraud,001,2026-04-13_11h02.34.755,GNG,2024.2.4,Win32,60.0240096,,,,,,,,,154.765,155.433,,,,,,47,Gummy candies,5,,,,0,,,,153.749,154.515,1,0.699,kb,1,1,0,0,0,44,0,44,0,1,,,,,,,
,,,hugofraud,001,2026-04-13_11h02.34.755,GNG,2024.2.4,Win32,60.0240096,,,,,,,,,156.484,156.999,,,,,,53,Ice cream cup,6,,,,0,,,,155.434,156.232,1,0.737,kb,1,1,0,0,0,45,0,45,0,1,,,,,,,
,,,hugofraud,001,2026-04-13_11h02.34.755,GNG,2024.2.4,Win32,60.0240096,,,,,,,,,157.952,158.667,,,,,,39,Muffin,4,,,,0,,,,156.999,157.7,1,0.643,kb,1,1,0,0,0,46,0,46,0,1,,,,,,,
,,,hugofraud,001,2026-04-13_11h02.34.755,GNG,2024.2.4,Win32,60.0240096,,,,,,,,,159.651,160.168,,,,,,10,"Dried fruits (apricot, mango)",1,,,,0,,,,158.668,159.4,1,0.651,kb,1,1,0,0,0,47,0,47,0,1,,,,,,,
,,,hugofraud,001,2026-04-13_11h02.34.755,GNG,2024.2.4,Win32,60.0240096,,,,,,,,,161.569,162.27,,,,,,6,Cut strawberry,1,,,,0,,,,160.168,161.319,1,1.066,kb,1,1,0,0,0,48,0,48,0,1,,,,,,,
,,,hugofraud,001,2026-04-13_11h02.34.755,GNG,2024.2.4,Win32,60.0240096,,,,,,,,,163.636,164.421,,,,,,57,Fondant au chocolat,6,,,,0,,,,162.27,163.386,1,1.025,kb,1,1,0,0,0,49,0,49,0,1,,,,,,,
,,,hugofraud,001,2026-04-13_11h02.34.755,GNG,2024.2.4,Win32,60.0240096,,,,,,,,,165.608,165.988,,,,,,44,Chocolate bar,5,,,,0,,,,164.421,165.339,1,0.853,kb,1,1,0,0,0,50,0,50,0,1,,,,,,,
,,,hugofraud,001,2026-04-13_11h02.34.755,GNG,2024.2.4,Win32,60.0240096,,,,,,,,,167.207,167.589,,,,,,2,Cucumber slice,1,,,,1,,,,165.989,166.955,1,0.878,kb,0,0,0,1,0,51,0,51,0,1,,,,,,,
,,,hugofraud,001,2026-04-13_11h02.34.755,GNG,2024.2.4,Win32,60.0240096,,,,,,,,,168.724,169.239,,,,,,41,"Chocolate snacks (e.g. Kinder, Knoppers)",5,,,,0,,,,167.589,168.458,1,0.787,kb,1,1,0,0,0,52,0,52,0,1,,,,,,,
,,,hugofraud,001,2026-04-13_11h02.34.755,GNG,2024.2.4,Win32,60.0240096,,,,,,,,,170.209,170.859,,,,,,44,Chocolate bar,5,,,,0,,,,169.24,169.956,1,0.643,kb,1,1,0,0,0,53,0,53,0,1,,,,,,,
,,,hugofraud,001,2026-04-13_11h02.34.755,GNG,2024.2.4,Win32,60.0240096,,,,,,,,,172.207,172.592,,,,,,16,"Salted nuts (Cashew, peanuts, pistacchios)",2,,,,1,,,,170.859,171.941,1,1.001,kb,0,0,0,1,0,54,0,54,0,1,,,,,,,
,,,hugofraud,001,2026-04-13_11h02.34.755,GNG,2024.2.4,Win32,60.0240096,,,,,,,,,173.424,174.025,,,,,,39,Muffin,4,,,,0,,,,172.593,173.174,1,0.497,kb,1,1,0,0,0,55,0,55,0,1,,,,,,,
,,,hugofraud,001,2026-04-13_11h02.34.755,GNG,2024.2.4,Win32,60.0240096,,,,,,,,,175.327,175.792,,,,,,30,Onion rings,3,,,,1,,,,174.025,175.075,1,0.984,kb,0,0,0,1,0,56,0,56,0,1,,,,,,,
,,,hugofraud,001,2026-04-13_11h02.34.755,GNG,2024.2.4,Win32,60.0240096,,,,,,,,,176.86,177.16,,,,,,6,Cut strawberry,1,,,,0,,,,175.792,176.609,1,0.76,kb,1,1,0,0,0,57,0,57,0,1,,,,,,,
,,,hugofraud,001,2026-04-13_11h02.34.755,GNG,2024.2.4,Win32,60.0240096,,,,,,,,,178.611,179.111,,,,,,31,Croissant,4,,,,0,,,,177.161,178.36,1,1.135,kb,1,1,0,0,0,58,0,58,0,1,,,,,,,
,,,hugofraud,001,2026-04-13_11h02.34.755,GNG,2024.2.4,Win32,60.0240096,,,,,,,,,180.962,181.749,,,,,,11,Crisps,2,,,,1,,,,179.111,180.711,0,,none,0,0,0,0,1,59,0,59,0,1,,,,,,,
,,,hugofraud,001,2026-04-13_11h02.34.755,GNG,2024.2.4,Win32,60.0240096,,,,,,,,,182.998,183.464,,,,,,37,Pain au chocolat,4,,,,0,,,,181.749,182.734,1,0.916,kb,1,1,0,0,0,60,0,60,0,1,,,,,,,
,,,hugofraud,001,2026-04-13_11h02.34.755,GNG,2024.2.4,Win32,60.0240096,,,,,,,,,185.315,185.867,,,,,,50,Chocolate biscuit,5,,,,0,,,,183.464,185.064,0,,none,1,0,1,0,0,61,0,61,0,1,,,,,,,
,,,hugofraud,001,2026-04-13_11h02.34.755,GNG,2024.2.4,Win32,60.0240096,,,,,,,,,186.983,187.415,,,,,,17,"Salted nuts (Cashew, peanuts, pistacchios)",2,,,,1,,,,185.867,186.732,1,0.788,kb,0,0,0,1,0,62,0,62,0,1,,,,,,,
,,,hugofraud,001,2026-04-13_11h02.34.755,GNG,2024.2.4,Win32,60.0240096,,,,,,,,,189.267,189.599,,,,,,50,Chocolate biscuit,5,,,,0,,,,187.415,189.016,0,,none,1,0,1,0,0,63,0,63,0,1,,,,,,,
,,,hugofraud,001,2026-04-13_11h02.34.755,GNG,2024.2.4,Win32,60.0240096,,,,,,,,,191.454,192.121,,,,,,54,Ice cream cone,6,,,,0,,,,189.6,191.201,0,,none,1,0,1,0,0,64,0,64,0,1,,,,,,,
,,,hugofraud,001,2026-04-13_11h02.34.755,GNG,2024.2.4,Win32,60.0240096,,,,,,,,,193.518,194.102,,,,,,54,Ice cream cone,6,,,,0,,,,192.121,193.268,1,1.068,kb,1,1,0,0,0,65,0,65,0,1,,,,,,,
,,,hugofraud,001,2026-04-13_11h02.34.755,GNG,2024.2.4,Win32,60.0240096,,,,,,,,,195.503,195.852,,,,,,10,"Dried fruits (apricot, mango)",1,,,,0,,,,194.103,195.253,1,1.064,kb,1,1,0,0,0,66,0,66,0,1,,,,,,,
,,,hugofraud,001,2026-04-13_11h02.34.755,GNG,2024.2.4,Win32,60.0240096,,,,,,,,,196.953,197.454,,,,,,37,Pain au chocolat,4,,,,0,,,,195.852,196.69,1,0.765,kb,1,1,0,0,0,67,0,67,0,1,,,,,,,
,,,hugofraud,001,2026-04-13_11h02.34.755,GNG,2024.2.4,Win32,60.0240096,,,,,,,,,199.311,199.639,,,,,,58,Mochi,6,,,,0,,,,197.455,199.044,0,,none,1,0,1,0,0,68,0,68,0,1,,,,,,,
,,,hugofraud,001,2026-04-13_11h02.34.755,GNG,2024.2.4,Win32,60.0240096,,,,,,,,,200.706,201.139,,,,,,33,Cinnamon roll,4,,,,0,,,,199.64,200.439,1,0.718,kb,1,1,0,0,0,69,0,69,0,1,,,,,,,
,,,hugofraud,001,2026-04-13_11h02.34.755,GNG,2024.2.4,Win32,60.0240096,,,,,,,,,202.107,202.473,,,,,,58,Mochi,6,,,,0,,,,201.139,201.857,1,0.637,kb,1,1,0,0,0,70,0,70,0,1,,,,,,,
,,,hugofraud,001,2026-04-13_11h02.34.755,GNG,2024.2.4,Win32,60.0240096,,,,,,,,,203.473,204.108,,,,,,58,Mochi,6,,,,0,,,,202.473,203.223,1,0.667,kb,1,1,0,0,0,71,0,71,0,1,,,,,,,
,,,hugofraud,001,2026-04-13_11h02.34.755,GNG,2024.2.4,Win32,60.0240096,,,,,,,,,204.89,205.208,,,,,,33,Cinnamon roll,4,,,,0,,,,204.108,204.624,1,0.435,kb,1,1,0,0,0,72,0,72,0,1,,,,,,,
,,,hugofraud,001,2026-04-13_11h02.34.755,GNG,2024.2.4,Win32,60.0240096,,,,,,,,,207.06,207.793,,,,,,28,Burger (vegetarian),3,,,,1,,,,205.208,206.808,0,,none,0,0,0,0,1,73,0,73,0,1,,,,,,,
,,,hugofraud,001,2026-04-13_11h02.34.755,GNG,2024.2.4,Win32,60.0240096,,,,,,,,,208.377,209.16,,,,,,54,Ice cream cone,6,,,,0,,,,207.793,208.112,1,0.258,kb,1,1,0,0,0,74,0,74,0,1,,,,,,,
,,,hugofraud,001,2026-04-13_11h02.34.755,GNG,2024.2.4,Win32,60.0240096,,,,,,,,,209.943,210.41,,,,,,17,"Salted nuts (Cashew, peanuts, pistacchios)",2,,,,1,,,,209.16,209.677,1,0.43,kb,0,0,0,1,0,75,0,75,0,1,,,,,,,
,,,hugofraud,001,2026-04-13_11h02.34.755,GNG,2024.2.4,Win32,60.0240096,,,,,,,,,212.277,212.611,,,,,,50,Chocolate biscuit,5,,,,0,,,,210.41,212.012,0,,none,1,0,1,0,0,76,0,76,0,1,,,,,,,
,,,hugofraud,001,2026-04-13_11h02.34.755,GNG,2024.2.4,Win32,60.0240096,,,,,,,,,213.598,214.078,,,,,,53,Ice cream cup,6,,,,0,,,,212.612,213.331,1,0.658,kb,1,1,0,0,0,77,0,77,0,1,,,,,,,
,,,hugofraud,001,2026-04-13_11h02.34.755,GNG,2024.2.4,Win32,60.0240096,,,,,,,,,215.229,215.597,,,,,,53,Ice cream cup,6,,,,0,,,,214.078,214.979,1,0.825,kb,1,1,0,0,0,78,0,78,0,1,,,,,,,
,,,hugofraud,001,2026-04-13_11h02.34.755,GNG,2024.2.4,Win32,60.0240096,,,,,,,,,217.048,217.45,,,,,,44,Chocolate bar,5,,,,0,,,,215.598,216.781,1,1.1,kb,1,1,0,0,0,79,0,79,0,1,,,,,,,
,,,hugofraud,001,2026-04-13_11h02.34.755,GNG,2024.2.4,Win32,60.0240096,,,,,,,,,,,,,,,,,,,,,,,,,,,,,,,,,,,,,,,,,0,0,0,0,1,,
,,,hugofraud,001,2026-04-13_11h02.34.755,GNG,2024.2.4,Win32,60.0240096,,,,,220.049,220.349,,,221.166,221.549,,,,,,2,Cucumber slice,1,,,,1,,217.45,220.049,220.351,220.916,1,0.477,kb,1,1,0,0,0,0,0,0,0,1,,,,,,,
,,,hugofraud,001,2026-04-13_11h02.34.755,GNG,2024.2.4,Win32,60.0240096,,,,,,,,,222.519,223.235,,,,,,30,Onion rings,3,,,,1,,,,221.549,222.253,1,0.647,kb,1,1,0,0,0,1,0,1,0,1,,,,,,,
,,,hugofraud,001,2026-04-13_11h02.34.755,GNG,2024.2.4,Win32,60.0240096,,,,,,,,,224.535,224.968,,,,,,33,Cinnamon roll,4,,,,0,,,,223.235,224.284,1,0.97,kb,0,0,0,1,0,2,0,2,0,1,,,,,,,
,,,hugofraud,001,2026-04-13_11h02.34.755,GNG,2024.2.4,Win32,60.0240096,,,,,,,,,226.068,226.637,,,,,,30,Onion rings,3,,,,1,,,,224.968,225.818,1,0.758,kb,1,1,0,0,0,3,0,3,0,1,,,,,,,
,,,hugofraud,001,2026-04-13_11h02.34.755,GNG,2024.2.4,Win32,60.0240096,,,,,,,,,228.505,229.154,,,,,,27,Kebab,3,,,,1,,,,226.637,228.24,0,,none,1,0,1,0,0,4,0,4,0,1,,,,,,,
,,,hugofraud,001,2026-04-13_11h02.34.755,GNG,2024.2.4,Win32,60.0240096,,,,,,,,,229.921,230.47,,,,,,1,Apple slice,1,,,,0,,,,229.155,229.671,1,0.419,kb,0,0,0,1,0,5,0,5,0,1,,,,,,,
,,,hugofraud,001,2026-04-13_11h02.34.755,GNG,2024.2.4,Win32,60.0240096,,,,,,,,,231.738,232.306,,,,,,12,Crisps,2,,,,1,,,,230.471,231.488,1,0.952,kb,1,1,0,0,0,6,0,6,0,1,,,,,,,
,,,hugofraud,001,2026-04-13_11h02.34.755,GNG,2024.2.4,Win32,60.0240096,,,,,,,,,233.247,233.573,,,,,,50,Chocolate biscuit,5,,,,0,,,,232.306,232.973,1,0.587,kb,0,0,0,1,0,7,0,7,0,1,,,,,,,
,,,hugofraud,001,2026-04-13_11h02.34.755,GNG,2024.2.4,Win32,60.0240096,,,,,,,,,235.442,235.773,,,,,,2,Cucumber slice,1,,,,1,,,,233.574,235.179,0,,none,1,0,1,0,0,8,0,8,0,1,,,,,,,
,,,hugofraud,001,2026-04-13_11h02.34.755,GNG,2024.2.4,Win32,60.0240096,,,,,,,,,236.709,237.124,,,,,,1,Apple slice,1,,,,0,,,,235.774,236.442,1,0.6,kb,0,0,0,1,0,9,0,9,0,1,,,,,,,
,,,hugofraud,001,2026-04-13_11h02.34.755,GNG,2024.2.4,Win32,60.0240096,,,,,,,,,237.941,238.509,,,,,,16,"Salted nuts (Cashew, peanuts, pistacchios)",2,,,,1,,,,237.124,237.691,1,0.505,kb,1,1,0,0,0,10,0,10,0,1,,,,,,,
,,,hugofraud,001,2026-04-13_11h02.34.755,GNG,2024.2.4,Win32,60.0240096,,,,,,,,,239.325,239.942,,,,,,11,Crisps,2,,,,1,,,,238.509,239.059,1,0.465,kb,1,1,0,0,0,11,0,11,0,1,,,,,,,
,,,hugofraud,001,2026-04-13_11h02.34.755,GNG,2024.2.4,Win32,60.0240096,,,,,,,,,240.727,241.292,,,,,,11,Crisps,2,,,,1,,,,239.943,240.476,1,0.475,kb,1,1,0,0,0,12,0,12,0,1,,,,,,,
,,,hugofraud,001,2026-04-13_11h02.34.755,GNG,2024.2.4,Win32,60.0240096,,,,,,,,,242.027,242.627,,,,,,28,Burger (vegetarian),3,,,,1,,,,241.293,241.76,1,0.408,kb,1,1,0,0,0,13,0,13,0,1,,,,,,,
,,,hugofraud,001,2026-04-13_11h02.34.755,GNG,2024.2.4,Win32,60.0240096,,,,,,,,,243.46,244.044,,,,,,11,Crisps,2,,,,1,,,,242.627,243.21,1,0.488,kb,1,1,0,0,0,14,0,14,0,1,,,,,,,
,,,hugofraud,001,2026-04-13_11h02.34.755,GNG,2024.2.4,Win32,60.0240096,,,,,,,,,245.128,245.445,,,,,,12,Crisps,2,,,,1,,,,244.044,244.878,1,0.749,kb,1,1,0,0,0,15,0,15,0,1,,,,,,,
,,,hugofraud,001,2026-04-13_11h02.34.755,GNG,2024.2.4,Win32,60.0240096,,,,,,,,,246.679,246.979,,,,,,28,Burger (vegetarian),3,,,,1,,,,245.445,246.429,1,0.9,kb,1,1,0,0,0,16,0,16,0,1,,,,,,,
,,,hugofraud,001,2026-04-13_11h02.34.755,GNG,2024.2.4,Win32,60.0240096,,,,,,,,,247.846,248.246,,,,,,2,Cucumber slice,1,,,,1,,,,246.98,247.596,1,0.555,kb,1,1,0,0,0,17,0,17,0,1,,,,,,,
,,,hugofraud,001,2026-04-13_11h02.34.755,GNG,2024.2.4,Win32,60.0240096,,,,,,,,,249.348,249.998,,,,,,30,Onion rings,3,,,,1,,,,248.247,249.097,1,0.761,kb,1,1,0,0,0,18,0,18,0,1,,,,,,,
,,,hugofraud,001,2026-04-13_11h02.34.755,GNG,2024.2.4,Win32,60.0240096,,,,,,,,,250.398,250.898,,,,,,16,"Salted nuts (Cashew, peanuts, pistacchios)",2,,,,1,,,,249.998,250.147,1,0.067,kb,1,1,0,0,0,19,0,19,0,1,,,,,,,
,,,hugofraud,001,2026-04-13_11h02.34.755,GNG,2024.2.4,Win32,60.0240096,,,,,,,,,251.817,252.399,,,,,,11,Crisps,2,,,,1,,,,250.898,251.565,1,0.583,kb,1,1,0,0,0,20,0,20,0,1,,,,,,,
,,,hugofraud,001,2026-04-13_11h02.34.755,GNG,2024.2.4,Win32,60.0240096,,,,,,,,,253.349,253.949,,,,,,17,"Salted nuts (Cashew, peanuts, pistacchios)",2,,,,1,,,,252.399,253.099,1,0.617,kb,1,1,0,0,0,21,0,21,0,1,,,,,,,
,,,hugofraud,001,2026-04-13_11h02.34.755,GNG,2024.2.4,Win32,60.0240096,,,,,,,,,254.617,255.334,,,,,,16,"Salted nuts (Cashew, peanuts, pistacchios)",2,,,,1,,,,253.95,254.366,1,0.356,kb,1,1,0,0,0,22,0,22,0,1,,,,,,,
,,,hugofraud,001,2026-04-13_11h02.34.755,GNG,2024.2.4,Win32,60.0240096,,,,,,,,,256.318,256.918,,,,,,16,"Salted nuts (Cashew, peanuts, pistacchios)",2,,,,1,,,,255.334,256.067,1,0.657,kb,1,1,0,0,0,23,0,23,0,1,,,,,,,
,,,hugofraud,001,2026-04-13_11h02.34.755,GNG,2024.2.4,Win32,60.0240096,,,,,,,,,257.651,258.201,,,,,,12,Crisps,2,,,,1,,,,256.918,257.385,1,0.389,kb,1,1,0,0,0,24,0,24,0,1,,,,,,,
,,,hugofraud,001,2026-04-13_11h02.34.755,GNG,2024.2.4,Win32,60.0240096,,,,,,,,,259.102,259.786,,,,,,54,Ice cream cone,6,,,,0,,,,258.201,258.852,1,0.586,kb,0,0,0,1,0,25,0,25,0,1,,,,,,,
,,,hugofraud,001,2026-04-13_11h02.34.755,GNG,2024.2.4,Win32,60.0240096,,,,,,,,,260.937,261.47,,,,,,16,"Salted nuts (Cashew, peanuts, pistacchios)",2,,,,1,,,,259.786,260.67,1,0.815,kb,1,1,0,0,0,26,0,26,0,1,,,,,,,
,,,hugofraud,001,2026-04-13_11h02.34.755,GNG,2024.2.4,Win32,60.0240096,,,,,,,,,262.354,263.071,,,,,,28,Burger (vegetarian),3,,,,1,,,,261.471,262.103,1,0.567,kb,1,1,0,0,0,27,0,27,0,1,,,,,,,
,,,hugofraud,001,2026-04-13_11h02.34.755,GNG,2024.2.4,Win32,60.0240096,,,,,,,,,263.871,264.438,,,,,,12,Crisps,2,,,,1,,,,263.071,263.605,1,0.452,kb,1,1,0,0,0,28,0,28,0,1,,,,,,,
,,,hugofraud,001,2026-04-13_11h02.34.755,GNG,2024.2.4,Win32,60.0240096,,,,,,,,,265.207,265.856,,,,,,12,Crisps,2,,,,1,,,,264.438,264.955,1,0.453,kb,1,1,0,0,0,29,0,29,0,1,,,,,,,
,,,hugofraud,001,2026-04-13_11h02.34.755,GNG,2024.2.4,Win32,60.0240096,,,,,,,,,267.708,268.19,,,,,,28,Burger (vegetarian),3,,,,1,,,,265.856,267.446,0,,none,1,0,1,0,0,30,0,30,0,1,,,,,,,
,,,hugofraud,001,2026-04-13_11h02.34.755,GNG,2024.2.4,Win32,60.0240096,,,,,,,,,270.042,270.635,,,,,,12,Crisps,2,,,,1,,,,268.19,269.791,0,,none,1,0,1,0,0,31,0,31,0,1,,,,,,,
,,,hugofraud,001,2026-04-13_11h02.34.755,GNG,2024.2.4,Win32,60.0240096,,,,,,,,,271.825,272.475,,,,,,17,"Salted nuts (Cashew, peanuts, pistacchios)",2,,,,1,,,,270.636,271.575,1,0.882,tap,1,1,0,0,0,32,0,32,0,1,,,,,,,
,,,hugofraud,001,2026-04-13_11h02.34.755,GNG,2024.2.4,Win32,60.0240096,,,,,,,,,273.243,273.709,,,,,,47,Gummy candies,5,,,,0,,,,272.476,272.992,1,0.439,kb,0,0,0,1,0,33,0,33,0,1,,,,,,,
,,,hugofraud,001,2026-04-13_11h02.34.755,GNG,2024.2.4,Win32,60.0240096,,,,,,,,,274.827,275.477,,,,,,16,"Salted nuts (Cashew, peanuts, pistacchios)",2,,,,1,,,,273.709,274.577,1,0.805,kb,1,1,0,0,0,34,0,34,0,1,,,,,,,
,,,hugofraud,001,2026-04-13_11h02.34.755,GNG,2024.2.4,Win32,60.0240096,,,,,,,,,276.528,277.295,,,,,,11,Crisps,2,,,,1,,,,275.477,276.277,1,0.732,kb,1,1,0,0,0,35,0,35,0,1,,,,,,,
,,,hugofraud,001,2026-04-13_11h02.34.755,GNG,2024.2.4,Win32,60.0240096,,,,,,,,,278.629,279.195,,,,,,11,Crisps,2,,,,1,,,,277.295,278.378,1,1.021,kb,1,1,0,0,0,36,0,36,0,1,,,,,,,
,,,hugofraud,001,2026-04-13_11h02.34.755,GNG,2024.2.4,Win32,60.0240096,,,,,,,,,279.98,280.73,,,,,,57,Fondant au chocolat,6,,,,0,,,,279.196,279.729,1,0.469,kb,0,0,0,1,0,37,0,37,0,1,,,,,,,
,,,hugofraud,001,2026-04-13_11h02.34.755,GNG,2024.2.4,Win32,60.0240096,,,,,,,,,281.83,282.142,,,,,,28,Burger (vegetarian),3,,,,1,,,,280.73,281.58,1,0.771,kb,1,1,0,0,0,38,0,38,0,1,,,,,,,
,,,hugofraud,001,2026-04-13_11h02.34.755,GNG,2024.2.4,Win32,60.0240096,,,,,,,,,283.401,283.867,,,,,,31,Croissant,4,,,,0,,,,282.142,283.137,1,0.923,kb,0,0,0,1,0,39,0,39,0,1,,,,,,,
,,,hugofraud,001,2026-04-13_11h02.34.755,GNG,2024.2.4,Win32,60.0240096,,,,,,,,,285.717,286.082,,,,,,30,Onion rings,3,,,,1,,,,283.868,285.466,0,,none,1,0,1,0,0,40,0,40,0,1,,,,,,,
,,,hugofraud,001,2026-04-13_11h02.34.755,GNG,2024.2.4,Win32,60.0240096,,,,,,,,,287.934,288.416,,,,,,6,Cut strawberry,1,,,,0,,,,286.083,287.683,0,,none,0,0,0,0,1,41,0,41,0,1,,,,,,,
,,,hugofraud,001,2026-04-13_11h02.34.755,GNG,2024.2.4,Win32,60.0240096,,,,,,,,,290.268,291.035,,,,,,24,Burger (beef),3,,,,1,,,,288.417,290.017,0,,none,1,0,1,0,0,42,0,42,0,1,,,,,,,
,,,hugofraud,001,2026-04-13_11h02.34.755,GNG,2024.2.4,Win32,60.0240096,,,,,,,,,292.052,292.803,,,,,,2,Cucumber slice,1,,,,1,,,,291.035,291.786,1,0.672,kb,1,1,0,0,0,43,0,43,0,1,,,,,,,
,,,hugofraud,001,2026-04-13_11h02.34.755,GNG,2024.2.4,Win32,60.0240096,,,,,,,,,293.62,293.956,,,,,,11,Crisps,2,,,,1,,,,292.803,293.355,1,0.466,kb,1,1,0,0,0,44,0,44,0,1,,,,,,,
,,,hugofraud,001,2026-04-13_11h02.34.755,GNG,2024.2.4,Win32,60.0240096,,,,,,,,,294.737,295.27,,,,,,17,"Salted nuts (Cashew, peanuts, pistacchios)",2,,,,1,,,,293.956,294.474,1,0.44,kb,1,1,0,0,0,45,0,45,0,1,,,,,,,
,,,hugofraud,001,2026-04-13_11h02.34.755,GNG,2024.2.4,Win32,60.0240096,,,,,,,,,296.124,296.739,,,,,,30,Onion rings,3,,,,1,,,,295.271,295.872,1,0.534,kb,1,1,0,0,0,46,0,46,0,1,,,,,,,
,,,hugofraud,001,2026-04-13_11h02.34.755,GNG,2024.2.4,Win32,60.0240096,,,,,,,,,297.622,298.339,,,,,,17,"Salted nuts (Cashew, peanuts, pistacchios)",2,,,,1,,,,296.739,297.371,1,0.551,kb,1,1,0,0,0,47,0,47,0,1,,,,,,,
,,,hugofraud,001,2026-04-13_11h02.34.755,GNG,2024.2.4,Win32,60.0240096,,,,,,,,,300.19,300.941,,,,,,30,Onion rings,3,,,,1,,,,298.339,299.94,0,,none,1,0,1,0,0,48,0,48,0,1,,,,,,,
,,,hugofraud,001,2026-04-13_11h02.34.755,GNG,2024.2.4,Win32,60.0240096,,,,,,,,,301.707,302.178,,,,,,27,Kebab,3,,,,1,,,,300.942,301.44,1,0.419,kb,1,1,0,0,0,49,0,49,0,1,,,,,,,
,,,hugofraud,001,2026-04-13_11h02.34.755,GNG,2024.2.4,Win32,60.0240096,,,,,,,,,304.044,304.692,,,,,,24,Burger (beef),3,,,,1,,,,302.178,303.778,0,,none,1,0,1,0,0,50,0,50,0,1,,,,,,,
,,,hugofraud,001,2026-04-13_11h02.34.755,GNG,2024.2.4,Win32,60.0240096,,,,,,,,,305.58,306.092,,,,,,24,Burger (beef),3,,,,1,,,,304.692,305.315,1,0.535,kb,1,1,0,0,0,51,0,51,0,1,,,,,,,
,,,hugofraud,001,2026-04-13_11h02.34.755,GNG,2024.2.4,Win32,60.0240096,,,,,,,,,307.21,307.66,,,,,,16,"Salted nuts (Cashew, peanuts, pistacchios)",2,,,,1,,,,306.092,306.96,1,0.801,kb,1,1,0,0,0,52,0,52,0,1,,,,,,,
,,,hugofraud,001,2026-04-13_11h02.34.755,GNG,2024.2.4,Win32,60.0240096,,,,,,,,,308.46,308.978,,,,,,27,Kebab,3,,,,1,,,,307.66,308.194,1,0.454,kb,1,1,0,0,0,53,0,53,0,1,,,,,,,
,,,hugofraud,001,2026-04-13_11h02.34.755,GNG,2024.2.4,Win32,60.0240096,,,,,,,,,309.794,310.261,,,,,,30,Onion rings,3,,,,1,,,,308.978,309.544,1,0.5,kb,1,1,0,0,0,54,0,54,0,1,,,,,,,
,,,hugofraud,001,2026-04-13_11h02.34.755,GNG,2024.2.4,Win32,60.0240096,,,,,,,,,311.079,311.763,,,,,,17,"Salted nuts (Cashew, peanuts, pistacchios)",2,,,,1,,,,310.261,310.828,1,0.506,kb,1,1,0,0,0,55,0,55,0,1,,,,,,,
,,,hugofraud,001,2026-04-13_11h02.34.755,GNG,2024.2.4,Win32,60.0240096,,,,,,,,,312.495,313.251,,,,,,37,Pain au chocolat,4,,,,0,,,,311.764,312.23,1,0.374,kb,0,0,0,1,0,56,0,56,0,1,,,,,,,
,,,hugofraud,001,2026-04-13_11h02.34.755,GNG,2024.2.4,Win32,60.0240096,,,,,,,,,314.281,314.718,,,,,,24,Burger (beef),3,,,,1,,,,313.251,314.03,1,0.691,kb,1,1,0,0,0,57,0,57,0,1,,,,,,,
,,,hugofraud,001,2026-04-13_11h02.34.755,GNG,2024.2.4,Win32,60.0240096,,,,,,,,,315.587,316.132,,,,,,2,Cucumber slice,1,,,,1,,,,314.718,315.316,1,0.52,kb,1,1,0,0,0,58,0,58,0,1,,,,,,,
,,,hugofraud,001,2026-04-13_11h02.34.755,GNG,2024.2.4,Win32,60.0240096,,,,,,,,,316.933,317.449,,,,,,28,Burger (vegetarian),3,,,,1,,,,316.132,316.682,1,0.475,kb,1,1,0,0,0,59,0,59,0,1,,,,,,,
,,,hugofraud,001,2026-04-13_11h02.34.755,GNG,2024.2.4,Win32,60.0240096,,,,,,,,,318.316,318.966,,,,,,27,Kebab,3,,,,1,,,,317.45,318.066,1,0.533,kb,1,1,0,0,0,60,0,60,0,1,,,,,,,
,,,hugofraud,001,2026-04-13_11h02.34.755,GNG,2024.2.4,Win32,60.0240096,,,,,,,,,319.733,320.084,,,,,,12,Crisps,2,,,,1,,,,318.966,319.483,1,0.453,kb,1,1,0,0,0,61,0,61,0,1,,,,,,,
,,,hugofraud,001,2026-04-13_11h02.34.755,GNG,2024.2.4,Win32,60.0240096,,,,,,,,,320.7,321.434,,,,,,24,Burger (beef),3,,,,1,,,,320.084,320.45,1,0.287,kb,1,1,0,0,0,62,0,62,0,1,,,,,,,
,,,hugofraud,001,2026-04-13_11h02.34.755,GNG,2024.2.4,Win32,60.0240096,,,,,,,,,323.285,323.985,,,,,,53,Ice cream cup,6,,,,0,,,,321.435,323.034,0,,none,0,0,0,0,1,63,0,63,0,1,,,,,,,
,,,hugofraud,001,2026-04-13_11h02.34.755,GNG,2024.2.4,Win32,60.0240096,,,,,,,,,324.752,325.303,,,,,,2,Cucumber slice,1,,,,1,,,,323.985,324.502,1,0.436,kb,1,1,0,0,0,64,0,64,0,1,,,,,,,
,,,hugofraud,001,2026-04-13_11h02.34.755,GNG,2024.2.4,Win32,60.0240096,,,,,,,,,325.988,326.437,,,,,,24,Burger (beef),3,,,,1,,,,325.303,325.736,1,0.346,kb,1,1,0,0,0,65,0,65,0,1,,,,,,,
,,,hugofraud,001,2026-04-13_11h02.34.755,GNG,2024.2.4,Win32,60.0240096,,,,,,,,,327.253,327.787,,,,,,17,"Salted nuts (Cashew, peanuts, pistacchios)",2,,,,1,,,,326.438,326.989,1,0.492,kb,1,1,0,0,0,66,0,66,0,1,,,,,,,
,,,hugofraud,001,2026-04-13_11h02.34.755,GNG,2024.2.4,Win32,60.0240096,,,,,,,,,328.605,329.322,,,,,,2,Cucumber slice,1,,,,1,,,,327.788,328.338,1,0.487,kb,1,1,0,0,0,67,0,67,0,1,,,,,,,
,,,hugofraud,001,2026-04-13_11h02.34.755,GNG,2024.2.4,Win32,60.0240096,,,,,,,,,330.089,330.556,,,,,,41,"Chocolate snacks (e.g. Kinder, Knoppers)",5,,,,0,,,,329.322,329.838,1,0.437,kb,0,0,0,1,0,68,0,68,0,1,,,,,,,
,,,hugofraud,001,2026-04-13_11h02.34.755,GNG,2024.2.4,Win32,60.0240096,,,,,,,,,331.406,331.706,,,,,,24,Burger (beef),3,,,,1,,,,330.557,331.156,1,0.523,kb,1,1,0,0,0,69,0,69,0,1,,,,,,,
,,,hugofraud,001,2026-04-13_11h02.34.755,GNG,2024.2.4,Win32,60.0240096,,,,,,,,,333.561,334.108,,,,,,39,Muffin,4,,,,0,,,,331.706,333.306,0,,none,0,0,0,0,1,70,0,70,0,1,,,,,,,
,,,hugofraud,001,2026-04-13_11h02.34.755,GNG,2024.2.4,Win32,60.0240096,,,,,,,,,334.875,335.358,,,,,,27,Kebab,3,,,,1,,,,334.108,334.624,1,0.424,kb,1,1,0,0,0,71,0,71,0,1,,,,,,,
,,,hugofraud,001,2026-04-13_11h02.34.755,GNG,2024.2.4,Win32,60.0240096,,,,,,,,,336.126,336.661,,,,,,24,Burger (beef),3,,,,1,,,,335.358,335.861,1,0.43,kb,1,1,0,0,0,72,0,72,0,1,,,,,,,
,,,hugofraud,001,2026-04-13_11h02.34.755,GNG,2024.2.4,Win32,60.0240096,,,,,,,,,338.51,338.91,,,,,,44,Chocolate bar,5,,,,0,,,,336.661,338.259,0,,none,0,0,0,0,1,73,0,73,0,1,,,,,,,
,,,hugofraud,001,2026-04-13_11h02.34.755,GNG,2024.2.4,Win32,60.0240096,,,,,,,,,339.677,340.394,,,,,,17,"Salted nuts (Cashew, peanuts, pistacchios)",2,,,,1,,,,338.91,339.427,1,0.433,kb,1,1,0,0,0,74,0,74,0,1,,,,,,,
,,,hugofraud,001,2026-04-13_11h02.34.755,GNG,2024.2.4,Win32,60.0240096,,,,,,,,,342.244,342.847,,,,,,10,"Dried fruits (apricot, mango)",1,,,,0,,,,340.394,341.994,0,,none,0,0,0,0,1,75,0,75,0,1,,,,,,,
,,,hugofraud,001,2026-04-13_11h02.34.755,GNG,2024.2.4,Win32,60.0240096,,,,,,,,,343.596,344.362,,,,,,27,Kebab,3,,,,1,,,,342.847,343.345,1,0.42,kb,1,1,0,0,0,76,0,76,0,1,,,,,,,
,,,hugofraud,001,2026-04-13_11h02.34.755,GNG,2024.2.4,Win32,60.0240096,,,,,,,,,345.029,345.567,,,,,,27,Kebab,3,,,,1,,,,344.363,344.763,1,0.331,kb,1,1,0,0,0,77,0,77,0,1,,,,,,,
,,,hugofraud,001,2026-04-13_11h02.34.755,GNG,2024.2.4,Win32,60.0240096,,,,,,,,,346.264,346.68,,,,,,58,Mochi,6,,,,0,,,,345.567,346.013,1,0.373,kb,0,0,0,1,0,78,0,78,0,1,,,,,,,
,,,hugofraud,001,2026-04-13_11h02.34.755,GNG,2024.2.4,Win32,60.0240096,,,,,,,,,347.781,348.281,,,,,,28,Burger (vegetarian),3,,,,1,,,,346.68,347.515,1,0.774,kb,1,1,0,0,0,79,0,79,0,1,,,,,,,
,,,hugofraud,001,2026-04-13_11h02.34.755,GNG,2024.2.4,Win32,60.0240096,,,,,,,,,,,,,,,,,,,,,,,,,,,,,,,,,,,,,,,,,1,0,1,0,1,,
,,,hugofraud,001,2026-04-13_11h02.34.755,GNG,2024.2.4,Win32,60.0240096,,,,,349.282,349.581,,,350.401,351.05,,,,,,39,Muffin,4,,,,0,,348.282,349.282,349.584,350.132,1,0.484,kb,1,1,0,0,0,0,0,0,0,1,,,,,,,
,,,hugofraud,001,2026-04-13_11h02.34.755,GNG,2024.2.4,Win32,60.0240096,,,,,,,,,351.733,352.1,,,,,,41,"Chocolate snacks (e.g. Kinder, Knoppers)",5,,,,0,,,,351.05,351.467,1,0.332,kb,1,1,0,0,0,1,0,1,0,1,,,,,,,
,,,hugofraud,001,2026-04-13_11h02.34.755,GNG,2024.2.4,Win32,60.0240096,,,,,,,,,352.834,353.284,,,,,,58,Mochi,6,,,,0,,,,352.1,352.583,1,0.399,kb,1,1,0,0,0,2,0,2,0,1,,,,,,,
,,,hugofraud,001,2026-04-13_11h02.34.755,GNG,2024.2.4,Win32,60.0240096,,,,,,,,,354.052,354.702,,,,,,57,Fondant au chocolat,6,,,,0,,,,353.284,353.8,1,0.451,kb,1,1,0,0,0,3,0,3,0,1,,,,,,,
,,,hugofraud,001,2026-04-13_11h02.34.755,GNG,2024.2.4,Win32,60.0240096,,,,,,,,,355.487,356.019,,,,,,58,Mochi,6,,,,0,,,,354.702,355.223,1,0.446,kb,1,1,0,0,0,4,0,4,0,1,,,,,,,
,,,hugofraud,001,2026-04-13_11h02.34.755,GNG,2024.2.4,Win32,60.0240096,,,,,,,,,357.103,357.519,,,,,,31,Croissant,4,,,,0,,,,356.019,356.852,1,0.749,kb,1,1,0,0,0,5,0,5,0,1,,,,,,,
,,,hugofraud,001,2026-04-13_11h02.34.755,GNG,2024.2.4,Win32,60.0240096,,,,,,,,,358.536,359.17,,,,,,41,"Chocolate snacks (e.g. Kinder, Knoppers)",5,,,,0,,,,357.521,358.286,1,0.699,kb,1,1,0,0,0,6,0,6,0,1,,,,,,,
,,,hugofraud,001,2026-04-13_11h02.34.755,GNG,2024.2.4,Win32,60.0240096,,,,,,,,,359.904,360.554,,,,,,16,"Salted nuts (Cashew, peanuts, pistacchios)",2,,,,1,,,,359.17,359.637,1,0.383,kb,0,0,0,1,0,7,0,7,0,1,,,,,,,
,,,hugofraud,001,2026-04-13_11h02.34.755,GNG,2024.2.4,Win32,60.0240096,,,,,,,,,361.321,362.022,,,,,,37,Pain au chocolat,4,,,,0,,,,360.554,361.071,1,0.451,kb,1,1,0,0,0,8,0,8,0,1,,,,,,,
,,,hugofraud,001,2026-04-13_11h02.34.755,GNG,2024.2.4,Win32,60.0240096,,,,,,,,,362.723,363.176,,,,,,10,"Dried fruits (apricot, mango)",1,,,,0,,,,362.022,362.471,1,0.386,kb,1,1,0,0,0,9,0,9,0,1,,,,,,,
,,,hugofraud,001,2026-04-13_11h02.34.755,GNG,2024.2.4,Win32,60.0240096,,,,,,,,,365.041,365.382,,,,,,54,Ice cream cone,6,,,,0,,,,363.176,364.78,0,,none,1,0,1,0,0,10,0,10,0,1,,,,,,,
,,,hugofraud,001,2026-04-13_11h02.34.755,GNG,2024.2.4,Win32,60.0240096,,,,,,,,,367.241,367.592,,,,,,54,Ice cream cone,6,,,,0,,,,365.382,366.98,0,,none,1,0,1,0,0,11,0,11,0,1,,,,,,,
,,,hugofraud,001,2026-04-13_11h02.34.755,GNG,2024.2.4,Win32,60.0240096,,,,,,,,,369.442,369.76,,,,,,54,Ice cream cone,6,,,,0,,,,367.592,369.192,0,,none,1,0,1,0,0,12,0,12,0,1,,,,,,,
,,,hugofraud,001,2026-04-13_11h02.34.755,GNG,2024.2.4,Win32,60.0240096,,,,,,,,,371.61,371.909,,,,,,33,Cinnamon roll,4,,,,0,,,,369.76,371.36,0,,none,1,0,1,0,0,13,0,13,0,1,,,,,,,
,,,hugofraud,001,2026-04-13_11h02.34.755,GNG,2024.2.4,Win32,60.0240096,,,,,,,,,373.26,373.978,,,,,,6,Cut strawberry,1,,,,0,,,,371.91,372.994,1,1.016,kb,1,1,0,0,0,14,0,14,0,1,,,,,,,
,,,hugofraud,001,2026-04-13_11h02.34.755,GNG,2024.2.4,Win32,60.0240096,,,,,,,,,375.83,376.613,,,,,,27,Kebab,3,,,,1,,,,373.978,375.578,0,,none,0,0,0,0,1,15,0,15,0,1,,,,,,,
,,,hugofraud,001,2026-04-13_11h02.34.755,GNG,2024.2.4,Win32,60.0240096,,,,,,,,,378.463,378.93,,,,,,24,Burger (beef),3,,,,1,,,,376.613,378.213,0,,none,0,0,0,0,1,16,0,16,0,1,,,,,,,
,,,hugofraud,001,2026-04-13_11h02.34.755,GNG,2024.2.4,Win32,60.0240096,,,,,,,,,380.147,380.598,,,,,,31,Croissant,4,,,,0,,,,378.93,379.897,1,0.904,kb,1,1,0,0,0,17,0,17,0,1,,,,,,,
,,,hugofraud,001,2026-04-13_11h02.34.755,GNG,2024.2.4,Win32,60.0240096,,,,,,,,,381.514,382.198,,,,,,53,Ice cream cup,6,,,,0,,,,380.598,381.264,1,0.597,kb,1,1,0,0,0,18,0,18,0,1,,,,,,,
,,,hugofraud,001,2026-04-13_11h02.34.755,GNG,2024.2.4,Win32,60.0240096,,,,,,,,,382.915,383.599,,,,,,1,Apple slice,1,,,,0,,,,382.198,382.665,1,0.4,kb,1,1,0,0,0,19,0,19,0,1,,,,,,,
,,,hugofraud,001,2026-04-13_11h02.34.755,GNG,2024.2.4,Win32,60.0240096,,,,,,,,,384.283,385.034,,,,,,1,Apple slice,1,,,,0,,,,383.599,384.022,1,0.364,kb,1,1,0,0,0,20,0,20,0,1,,,,,,,
,,,hugofraud,001,2026-04-13_11h02.34.755,GNG,2024.2.4,Win32,60.0240096,,,,,,,,,385.821,386.134,,,,,,58,Mochi,6,,,,0,,,,385.034,385.568,1,0.465,kb,1,1,0,0,0,21,0,21,0,1,,,,,,,
,,,hugofraud,001,2026-04-13_11h02.34.755,GNG,2024.2.4,Win32,60.0240096,,,,,,,,,387.418,388.119,,,,,,58,Mochi,6,,,,0,,,,386.134,387.168,1,0.942,kb,1,1,0,0,0,22,0,22,0,1,,,,,,,
,,,hugofraud,001,2026-04-13_11h02.34.755,GNG,2024.2.4,Win32,60.0240096,,,,,,,,,388.97,389.285,,,,,,1,Apple slice,1,,,,0,,,,388.119,388.719,1,0.542,kb,1,1,0,0,0,23,0,23,0,1,,,,,,,
,,,hugofraud,001,2026-04-13_11h02.34.755,GNG,2024.2.4,Win32,60.0240096,,,,,,,,,391.137,391.637,,,,,,27,Kebab,3,,,,1,,,,389.286,390.886,0,,none,0,0,0,0,1,24,0,24,0,1,,,,,,,
,,,hugofraud,001,2026-04-13_11h02.34.755,GNG,2024.2.4,Win32,60.0240096,,,,,,,,,392.571,392.904,,,,,,50,Chocolate biscuit,5,,,,0,,,,391.637,392.32,1,0.6,kb,1,1,0,0,0,25,0,25,0,1,,,,,,,
,,,hugofraud,001,2026-04-13_11h02.34.755,GNG,2024.2.4,Win32,60.0240096,,,,,,,,,393.84,394.521,,,,,,44,Chocolate bar,5,,,,0,,,,392.904,393.588,1,0.611,kb,1,1,0,0,0,26,0,26,0,1,,,,,,,
,,,hugofraud,001,2026-04-13_11h02.34.755,GNG,2024.2.4,Win32,60.0240096,,,,,,,,,395.561,396.139,,,,,,47,Gummy candies,5,,,,0,,,,394.521,395.306,1,0.721,kb,1,1,0,0,0,27,0,27,0,1,,,,,,,
,,,hugofraud,001,2026-04-13_11h02.34.755,GNG,2024.2.4,Win32,60.0240096,,,,,,,,,397.16,397.607,,,,,,53,Ice cream cup,6,,,,0,,,,396.139,396.895,1,0.694,kb,1,1,0,0,0,28,0,28,0,1,,,,,,,
,,,hugofraud,001,2026-04-13_11h02.34.755,GNG,2024.2.4,Win32,60.0240096,,,,,,,,,398.63,399.207,,,,,,6,Cut strawberry,1,,,,0,,,,397.607,398.375,1,0.677,kb,1,1,0,0,0,29,0,29,0,1,,,,,,,
,,,hugofraud,001,2026-04-13_11h02.34.755,GNG,2024.2.4,Win32,60.0240096,,,,,,,,,400.542,401.259,,,,,,53,Ice cream cup,6,,,,0,,,,399.207,400.275,1,1.001,kb,1,1,0,0,0,30,0,30,0,1,,,,,,,
,,,hugofraud,001,2026-04-13_11h02.34.755,GNG,2024.2.4,Win32,60.0240096,,,,,,,,,403.109,403.659,,,,,,10,"Dried fruits (apricot, mango)",1,,,,0,,,,401.26,402.859,0,,none,1,0,1,0,0,31,0,31,0,1,,,,,,,
,,,hugofraud,001,2026-04-13_11h02.34.755,GNG,2024.2.4,Win32,60.0240096,,,,,,,,,405.511,406.162,,,,,,11,Crisps,2,,,,1,,,,403.659,405.26,0,,none,0,0,0,0,1,32,0,32,0,1,,,,,,,
,,,hugofraud,001,2026-04-13_11h02.34.755,GNG,2024.2.4,Win32,60.0240096,,,,,,,,,408.015,408.346,,,,,,33,Cinnamon roll,4,,,,0,,,,406.162,407.763,0,,none,1,0,1,0,0,33,0,33,0,1,,,,,,,
,,,hugofraud,001,2026-04-13_11h02.34.755,GNG,2024.2.4,Win32,60.0240096,,,,,,,,,410.197,410.798,,,,,,10,"Dried fruits (apricot, mango)",1,,,,0,,,,408.346,409.946,0,,none,1,0,1,0,0,34,0,34,0,1,,,,,,,
,,,hugofraud,001,2026-04-13_11h02.34.755,GNG,2024.2.4,Win32,60.0240096,,,,,,,,,412.647,413.315,,,,,,24,Burger (beef),3,,,,1,,,,410.798,412.397,0,,none,0,0,0,0,1,35,0,35,0,1,,,,,,,
,,,hugofraud,001,2026-04-13_11h02.34.755,GNG,2024.2.4,Win32,60.0240096,,,,,,,,,415.184,415.933,,,,,,31,Croissant,4,,,,0,,,,413.315,414.918,0,,none,1,0,1,0,0,36,0,36,0,1,,,,,,,
,,,hugofraud,001,2026-04-13_11h02.34.755,GNG,2024.2.4,Win32,60.0240096,,,,,,,,,419.131,419.132,,,,,,39,Muffin,4,,,,0,,,,415.933,418.114,0,,none,1,0,1,0,0,37,0,37,0,1,,,,,,,
,,,hugofraud,001,2026-04-13_11h02.34.755,GNG,2024.2.4,Win32,60.0240096,,,,,,,,,425.203,425.204,,,,,,39,Muffin,4,,,,0,,,,419.132,421.163,0,,none,1,0,1,0,0,38,0,38,0,1,,,,,,,
,,,hugofraud,001,2026-04-13_11h02.34.755,GNG,2024.2.4,Win32,60.0240096,,,,,,,,,430.49,430.491,,,,,,39,Muffin,4,,,,0,,,,425.207,429.485,0,,none,1,0,1,0,0,39,0,39,0,1,,,,,,,
,,,hugofraud,001,2026-04-13_11h02.34.755,GNG,2024.2.4,Win32,60.0240096,,,,,,,,,432.805,432.805,,,,,,44,Chocolate bar,5,,,,0,,,,430.491,432.504,0,,none,1,0,1,0,0,40,0,40,0,1,,,,,,,
,,,hugofraud,001,2026-04-13_11h02.34.755,GNG,2024.2.4,Win32,60.0240096,,,,,,,,,433.542,434.076,,,,,,31,Croissant,4,,,,0,,,,432.806,433.276,1,0.417,tap,1,1,0,0,0,41,0,41,0,1,,,,,,,
,,,hugofraud,001,2026-04-13_11h02.34.755,GNG,2024.2.4,Win32,60.0240096,,,,,,,,,435.309,435.862,,,,,,50,Chocolate biscuit,5,,,,0,,,,434.077,435.043,1,0.885,kb,1,1,0,0,0,42,0,42,0,1,,,,,,,
,,,hugofraud,001,2026-04-13_11h02.34.755,GNG,2024.2.4,Win32,60.0240096,,,,,,,,,436.663,437.377,,,,,,47,Gummy candies,5,,,,0,,,,435.863,436.411,1,0.473,kb,1,1,0,0,0,43,0,43,0,1,,,,,,,
,,,hugofraud,001,2026-04-13_11h02.34.755,GNG,2024.2.4,Win32,60.0240096,,,,,,,,,438.13,438.71,,,,,,54,Ice cream cone,6,,,,0,,,,437.377,437.864,1,0.431,kb,1,1,0,0,0,44,0,44,0,1,,,,,,,
,,,hugofraud,001,2026-04-13_11h02.34.755,GNG,2024.2.4,Win32,60.0240096,,,,,,,,,439.428,439.795,,,,,,44,Chocolate bar,5,,,,0,,,,438.711,439.161,1,0.389,kb,1,1,0,0,0,45,0,45,0,1,,,,,,,
,,,hugofraud,001,2026-04-13_11h02.34.755,GNG,2024.2.4,Win32,60.0240096,,,,,,,,,440.645,441.162,,,,,,33,Cinnamon roll,4,,,,0,,,,439.795,440.395,1,0.55,tap,1,1,0,0,0,46,0,46,0,1,,,,,,,
,,,hugofraud,001,2026-04-13_11h02.34.755,GNG,2024.2.4,Win32,60.0240096,,,,,,,,,441.83,442.43,,,,,,50,Chocolate biscuit,5,,,,0,,,,441.162,441.579,1,0.353,kb,1,1,0,0,0,47,0,47,0,1,,,,,,,
,,,hugofraud,001,2026-04-13_11h02.34.755,GNG,2024.2.4,Win32,60.0240096,,,,,,,,,443.163,443.747,,,,,,47,Gummy candies,5,,,,0,,,,442.43,442.897,1,0.391,kb,1,1,0,0,0,48,0,48,0,1,,,,,,,
,,,hugofraud,001,2026-04-13_11h02.34.755,GNG,2024.2.4,Win32,60.0240096,,,,,,,,,444.531,444.897,,,,,,57,Fondant au chocolat,6,,,,0,,,,443.747,444.264,1,0.455,kb,1,1,0,0,0,49,0,49,0,1,,,,,,,
,,,hugofraud,001,2026-04-13_11h02.34.755,GNG,2024.2.4,Win32,60.0240096,,,,,,,,,445.832,446.424,,,,,,53,Ice cream cup,6,,,,0,,,,444.898,445.581,1,0.616,kb,1,1,0,0,0,50,0,50,0,1,,,,,,,
,,,hugofraud,001,2026-04-13_11h02.34.755,GNG,2024.2.4,Win32,60.0240096,,,,,,,,,447.25,447.692,,,,,,33,Cinnamon roll,4,,,,0,,,,446.424,446.999,1,0.495,kb,1,1,0,0,0,51,0,51,0,1,,,,,,,
,,,hugofraud,001,2026-04-13_11h02.34.755,GNG,2024.2.4,Win32,60.0240096,,,,,,,,,448.437,448.953,,,,,,37,Pain au chocolat,4,,,,0,,,,447.692,448.184,1,0.415,kb,1,1,0,0,0,52,0,52,0,1,,,,,,,
,,,hugofraud,001,2026-04-13_11h02.34.755,GNG,2024.2.4,Win32,60.0240096,,,,,,,,,449.751,450.384,,,,,,33,Cinnamon roll,4,,,,0,,,,448.953,449.485,1,0.455,kb,1,1,0,0,0,53,0,53,0,1,,,,,,,
,,,hugofraud,001,2026-04-13_11h02.34.755,GNG,2024.2.4,Win32,60.0240096,,,,,,,,,451.118,451.534,,,,,,2,Cucumber slice,1,,,,1,,,,450.384,450.851,1,0.401,kb,0,0,0,1,0,54,0,54,0,1,,,,,,,
,,,hugofraud,001,2026-04-13_11h02.34.755,GNG,2024.2.4,Win32,60.0240096,,,,,,,,,452.501,452.818,,,,,,50,Chocolate biscuit,5,,,,0,,,,451.534,452.235,1,0.636,kb,1,1,0,0,0,55,0,55,0,1,,,,,,,
,,,hugofraud,001,2026-04-13_11h02.34.755,GNG,2024.2.4,Win32,60.0240096,,,,,,,,,453.736,454.086,,,,,,41,"Chocolate snacks (e.g. Kinder, Knoppers)",5,,,,0,,,,452.818,453.484,1,0.609,kb,1,1,0,0,0,56,0,56,0,1,,,,,,,
,,,hugofraud,001,2026-04-13_11h02.34.755,GNG,2024.2.4,Win32,60.0240096,,,,,,,,,454.886,455.671,,,,,,28,Burger (vegetarian),3,,,,1,,,,454.086,454.635,1,0.476,kb,0,0,0,1,0,57,0,57,0,1,,,,,,,
,,,hugofraud,001,2026-04-13_11h02.34.755,GNG,2024.2.4,Win32,60.0240096,,,,,,,,,456.357,456.853,,,,,,57,Fondant au chocolat,6,,,,0,,,,455.671,456.103,1,0.35,kb,1,1,0,0,0,58,0,58,0,1,,,,,,,
,,,hugofraud,001,2026-04-13_11h02.34.755,GNG,2024.2.4,Win32,60.0240096,,,,,,,,,457.654,458.304,,,,,,6,Cut strawberry,1,,,,0,,,,456.854,457.404,1,0.49,kb,1,1,0,0,0,59,0,59,0,1,,,,,,,
,,,hugofraud,001,2026-04-13_11h02.34.755,GNG,2024.2.4,Win32,60.0240096,,,,,,,,,460.156,460.706,,,,,,12,Crisps,2,,,,1,,,,458.304,459.905,0,,none,0,0,0,0,1,60,0,60,0,1,,,,,,,
,,,hugofraud,001,2026-04-13_11h02.34.755,GNG,2024.2.4,Win32,60.0240096,,,,,,,,,462.557,463.307,,,,,,16,"Salted nuts (Cashew, peanuts, pistacchios)",2,,,,1,,,,460.706,462.306,0,,none,0,0,0,0,1,61,0,61,0,1,,,,,,,
,,,hugofraud,001,2026-04-13_11h02.34.755,GNG,2024.2.4,Win32,60.0240096,,,,,,,,,465.161,465.926,,,,,,17,"Salted nuts (Cashew, peanuts, pistacchios)",2,,,,1,,,,463.307,464.907,0,,none,0,0,0,0,1,62,0,62,0,1,,,,,,,
,,,hugofraud,001,2026-04-13_11h02.34.755,GNG,2024.2.4,Win32,60.0240096,,,,,,,,,466.745,467.213,,,,,,10,"Dried fruits (apricot, mango)",1,,,,0,,,,465.927,466.492,1,0.504,kb,1,1,0,0,0,63,0,63,0,1,,,,,,,
,,,hugofraud,001,2026-04-13_11h02.34.755,GNG,2024.2.4,Win32,60.0240096,,,,,,,,,468.177,468.643,,,,,,44,Chocolate bar,5,,,,0,,,,467.213,467.926,1,0.63,kb,1,1,0,0,0,64,0,64,0,1,,,,,,,
,,,hugofraud,001,2026-04-13_11h02.34.755,GNG,2024.2.4,Win32,60.0240096,,,,,,,,,470.494,471.044,,,,,,37,Pain au chocolat,4,,,,0,,,,468.643,470.243,0,,none,1,0,1,0,0,65,0,65,0,1,,,,,,,
,,,hugofraud,001,2026-04-13_11h02.34.755,GNG,2024.2.4,Win32,60.0240096,,,,,,,,,472.896,473.229,,,,,,30,Onion rings,3,,,,1,,,,471.044,472.645,0,,none,0,0,0,0,1,66,0,66,0,1,,,,,,,
,,,hugofraud,001,2026-04-13_11h02.34.755,GNG,2024.2.4,Win32,60.0240096,,,,,,,,,474.046,474.797,,,,,,28,Burger (vegetarian),3,,,,1,,,,473.229,473.795,1,0.485,kb,0,0,0,1,0,67,0,67,0,1,,,,,,,
,,,hugofraud,001,2026-04-13_11h02.34.755,GNG,2024.2.4,Win32,60.0240096,,,,,,,,,475.613,476.297,,,,,,10,"Dried fruits (apricot, mango)",1,,,,0,,,,474.797,475.35,1,0.482,kb,1,1,0,0,0,68,0,68,0,1,,,,,,,
,,,hugofraud,001,2026-04-13_11h02.34.755,GNG,2024.2.4,Win32,60.0240096,,,,,,,,,478.148,478.916,,,,,,17,"Salted nuts (Cashew, peanuts, pistacchios)",2,,,,1,,,,476.297,477.885,0,,none,0,0,0,0,1,69,0,69,0,1,,,,,,,
,,,hugofraud,001,2026-04-13_11h02.34.755,GNG,2024.2.4,Win32,60.0240096,,,,,,,,,479.759,480.132,,,,,,37,Pain au chocolat,4,,,,0,,,,478.916,479.489,1,0.516,kb,1,1,0,0,0,70,0,70,0,1,,,,,,,
,,,hugofraud,001,2026-04-13_11h02.34.755,GNG,2024.2.4,Win32,60.0240096,,,,,,,,,481.084,481.483,,,,,,1,Apple slice,1,,,,0,,,,480.132,480.832,1,0.636,kb,1,1,0,0,0,71,0,71,0,1,,,,,,,
,,,hugofraud,001,2026-04-13_11h02.34.755,GNG,2024.2.4,Win32,60.0240096,,,,,,,,,483.334,483.969,,,,,,2,Cucumber slice,1,,,,1,,,,481.483,483.084,0,,none,0,0,0,0,1,72,0,72,0,1,,,,,,,
,,,hugofraud,001,2026-04-13_11h02.34.755,GNG,2024.2.4,Win32,60.0240096,,,,,,,,,484.669,485.435,,,,,,57,Fondant au chocolat,6,,,,0,,,,483.969,484.418,1,0.367,kb,1,1,0,0,0,73,0,73,0,1,,,,,,,
,,,hugofraud,001,2026-04-13_11h02.34.755,GNG,2024.2.4,Win32,60.0240096,,,,,,,,,487.303,487.807,,,,,,12,Crisps,2,,,,1,,,,485.435,487.036,0,,none,0,0,0,0,1,74,0,74,0,1,,,,,,,
,,,hugofraud,001,2026-04-13_11h02.34.755,GNG,2024.2.4,Win32,60.0240096,,,,,,,,,488.603,488.954,,,,,,41,"Chocolate snacks (e.g. Kinder, Knoppers)",5,,,,0,,,,487.808,488.341,1,0.462,kb,1,1,0,0,0,75,0,75,0,1,,,,,,,
,,,hugofraud,001,2026-04-13_11h02.34.755,GNG,2024.2.4,Win32,60.0240096,,,,,,,,,489.387,490.154,,,,,,44,Chocolate bar,5,,,,0,,,,488.955,489.12,1,0.099,kb,1,1,0,0,0,76,0,76,0,1,,,,,,,
,,,hugofraud,001,2026-04-13_11h02.34.755,GNG,2024.2.4,Win32,60.0240096,,,,,,,,,490.905,491.422,,,,,,47,Gummy candies,5,,,,0,,,,490.154,490.638,1,0.415,kb,1,1,0,0,0,77,0,77,0,1,,,,,,,
,,,hugofraud,001,2026-04-13_11h02.34.755,GNG,2024.2.4,Win32,60.0240096,,,,,,,,,492.139,492.606,,,,,,41,"Chocolate snacks (e.g. Kinder, Knoppers)",5,,,,0,,,,491.423,491.888,1,0.384,kb,1,1,0,0,0,78,0,78,0,1,,,,,,,
,,,hugofraud,001,2026-04-13_11h02.34.755,GNG,2024.2.4,Win32,60.0240096,,,,,,,,,493.472,493.823,,,,,,6,Cut strawberry,1,,,,0,,,,492.606,493.206,1,0.52,kb,1,1,0,0,0,79,0,79,0,1,,,,,,,
,,,hugofraud,001,2026-04-13_11h02.34.755,GNG,2024.2.4,Win32,60.0240096,,,,,,,,,,,,,,,,,,,,,,,,,,,,,,,,,,,,,,,,,2,0,2,0,1,,
,,,hugofraud,001,2026-04-13_11h02.34.755,GNG,2024.2.4,Win32,60.0240096,,,,,495.608,495.908,,,496.812,497.559,,,,,,27,Kebab,3,,,,1,,493.823,495.608,495.911,496.557,1,0.571,kb,1,1,0,0,0,0,0,0,0,1,,,,,,,
,,,hugofraud,001,2026-04-13_11h02.34.755,GNG,2024.2.4,Win32,60.0240096,,,,,,,,,498.308,499.059,,,,,,37,Pain au chocolat,4,,,,0,,,,497.559,498.057,1,0.428,kb,0,0,0,1,0,1,0,1,0,1,,,,,,,
,,,hugofraud,001,2026-04-13_11h02.34.755,GNG,2024.2.4,Win32,60.0240096,,,,,,,,,499.814,500.393,,,,,,28,Burger (vegetarian),3,,,,1,,,,499.06,499.547,1,0.431,kb,1,1,0,0,0,2,0,2,0,1,,,,,,,
,,,hugofraud,001,2026-04-13_11h02.34.755,GNG,2024.2.4,Win32,60.0240096,,,,,,,,,501.276,501.61,,,,,,57,Fondant au chocolat,6,,,,0,,,,500.394,501.01,1,0.552,kb,0,0,0,1,0,3,0,3,0,1,,,,,,,
,,,hugofraud,001,2026-04-13_11h02.34.755,GNG,2024.2.4,Win32,60.0240096,,,,,,,,,503.028,503.727,,,,,,12,Crisps,2,,,,1,,,,501.61,502.761,1,1.066,kb,1,1,0,0,0,4,0,4,0,1,,,,,,,
,,,hugofraud,001,2026-04-13_11h02.34.755,GNG,2024.2.4,Win32,60.0240096,,,,,,,,,504.261,504.828,,,,,,24,Burger (beef),3,,,,1,,,,503.728,504.01,1,0.22,kb,1,1,0,0,0,5,0,5,0,1,,,,,,,
,,,hugofraud,001,2026-04-13_11h02.34.755,GNG,2024.2.4,Win32,60.0240096,,,,,,,,,505.345,505.745,,,,,,27,Kebab,3,,,,1,,,,504.828,505.095,1,0.201,kb,1,1,0,0,0,6,0,6,0,1,,,,,,,
,,,hugofraud,001,2026-04-13_11h02.34.755,GNG,2024.2.4,Win32,60.0240096,,,,,,,,,506.246,506.881,,,,,,12,Crisps,2,,,,1,,,,505.745,505.995,1,0.176,kb,1,1,0,0,0,7,0,7,0,1,,,,,,,
,,,hugofraud,001,2026-04-13_11h02.34.755,GNG,2024.2.4,Win32,60.0240096,,,,,,,,,507.43,508.031,,,,,,58,Mochi,6,,,,0,,,,506.881,507.179,1,0.214,kb,0,0,0,1,0,8,0,8,0,1,,,,,,,
,,,hugofraud,001,2026-04-13_11h02.34.755,GNG,2024.2.4,Win32,60.0240096,,,,,,,,,508.481,508.931,,,,,,27,Kebab,3,,,,1,,,,508.031,508.214,1,0.117,kb,1,1,0,0,0,9,0,9,0,1,,,,,,,
,,,hugofraud,001,2026-04-13_11h02.34.755,GNG,2024.2.4,Win32,60.0240096,,,,,,,,,509.347,509.697,,,,,,11,Crisps,2,,,,1,,,,508.931,509.084,1,0.07,kb,1,1,0,0,0,10,0,10,0,1,,,,,,,
,,,hugofraud,001,2026-04-13_11h02.34.755,GNG,2024.2.4,Win32,60.0240096,,,,,,,,,510.181,510.648,,,,,,28,Burger (vegetarian),3,,,,1,,,,509.697,509.915,1,0.15,kb,1,1,0,0,0,11,0,11,0,1,,,,,,,
,,,hugofraud,001,2026-04-13_11h02.34.755,GNG,2024.2.4,Win32,60.0240096,,,,,,,,,511.349,511.949,,,,,,24,Burger (beef),3,,,,1,,,,510.648,511.082,1,0.357,kb,1,1,0,0,0,12,0,12,0,1,,,,,,,
,,,hugofraud,001,2026-04-13_11h02.34.755,GNG,2024.2.4,Win32,60.0240096,,,,,,,,,512.382,512.816,,,,,,54,Ice cream cone,6,,,,0,,,,511.949,512.132,1,0.105,kb,0,0,0,1,0,13,0,13,0,1,,,,,,,
,,,hugofraud,001,2026-04-13_11h02.34.755,GNG,2024.2.4,Win32,60.0240096,,,,,,,,,514.684,515.401,,,,,,53,Ice cream cup,6,,,,0,,,,512.816,514.417,0,,none,0,0,0,0,1,14,0,14,0,1,,,,,,,
,,,hugofraud,001,2026-04-13_11h02.34.755,GNG,2024.2.4,Win32,60.0240096,,,,,,,,,517.252,517.852,,,,,,39,Muffin,4,,,,0,,,,515.401,517.001,0,,none,0,0,0,0,1,15,0,15,0,1,,,,,,,
,,,hugofraud,001,2026-04-13_11h02.34.755,GNG,2024.2.4,Win32,60.0240096,,,,,,,,,518.735,519.202,,,,,,30,Onion rings,3,,,,1,,,,517.852,518.469,1,0.559,kb,1,1,0,0,0,16,0,16,0,1,,,,,,,
,,,hugofraud,001,2026-04-13_11h02.34.755,GNG,2024.2.4,Win32,60.0240096,,,,,,,,,521.053,521.553,,,,,,31,Croissant,4,,,,0,,,,519.203,520.803,0,,none,0,0,0,0,1,17,0,17,0,1,,,,,,,
,,,hugofraud,001,2026-04-13_11h02.34.755,GNG,2024.2.4,Win32,60.0240096,,,,,,,,,522.371,522.904,,,,,,27,Kebab,3,,,,1,,,,521.553,522.12,1,0.504,kb,1,1,0,0,0,18,0,18,0,1,,,,,,,
,,,hugofraud,001,2026-04-13_11h02.34.755,GNG,2024.2.4,Win32,60.0240096,,,,,,,,,523.721,524.522,,,,,,24,Burger (beef),3,,,,1,,,,522.904,523.471,1,0.489,kb,1,1,0,0,0,19,0,19,0,1,,,,,,,
,,,hugofraud,001,2026-04-13_11h02.34.755,GNG,2024.2.4,Win32,60.0240096,,,,,,,,,525.206,525.755,,,,,,16,"Salted nuts (Cashew, peanuts, pistacchios)",2,,,,1,,,,524.522,524.955,1,0.352,kb,1,1,0,0,0,20,0,20,0,1,,,,,,,
,,,hugofraud,001,2026-04-13_11h02.34.755,GNG,2024.2.4,Win32,60.0240096,,,,,,,,,526.623,527.359,,,,,,11,Crisps,2,,,,1,,,,525.757,526.373,1,0.543,kb,1,1,0,0,0,21,0,21,0,1,,,,,,,
,,,hugofraud,001,2026-04-13_11h02.34.755,GNG,2024.2.4,Win32,60.0240096,,,,,,,,,528.508,529.057,,,,,,17,"Salted nuts (Cashew, peanuts, pistacchios)",2,,,,1,,,,527.359,528.256,1,0.816,kb,1,1,0,0,0,22,0,22,0,1,,,,,,,
,,,hugofraud,001,2026-04-13_11h02.34.755,GNG,2024.2.4,Win32,60.0240096,,,,,,,,,529.909,530.658,,,,,,2,Cucumber slice,1,,,,1,,,,529.057,529.657,1,0.535,kb,1,1,0,0,0,23,0,23,0,1,,,,,,,
,,,hugofraud,001,2026-04-13_11h02.34.755,GNG,2024.2.4,Win32,60.0240096,,,,,,,,,532.51,533.077,,,,,,50,Chocolate biscuit,5,,,,0,,,,530.658,532.259,0,,none,0,0,0,0,1,24,0,24,0,1,,,,,,,
,,,hugofraud,001,2026-04-13_11h02.34.755,GNG,2024.2.4,Win32,60.0240096,,,,,,,,,533.861,534.51,,,,,,11,Crisps,2,,,,1,,,,533.077,533.594,1,0.433,kb,1,1,0,0,0,25,0,25,0,1,,,,,,,
,,,hugofraud,001,2026-04-13_11h02.34.755,GNG,2024.2.4,Win32,60.0240096,,,,,,,,,535.577,536.295,,,,,,11,Crisps,2,,,,1,,,,534.511,535.327,1,0.74,kb,1,1,0,0,0,26,0,26,0,1,,,,,,,
,,,hugofraud,001,2026-04-13_11h02.34.755,GNG,2024.2.4,Win32,60.0240096,,,,,,,,,537.148,537.547,,,,,,28,Burger (vegetarian),3,,,,1,,,,536.295,536.879,1,0.507,kb,1,1,0,0,0,27,0,27,0,1,,,,,,,
,,,hugofraud,001,2026-04-13_11h02.34.755,GNG,2024.2.4,Win32,60.0240096,,,,,,,,,539.397,540.18,,,,,,28,Burger (vegetarian),3,,,,1,,,,537.548,539.146,0,,none,1,0,1,0,0,28,0,28,0,1,,,,,,,
,,,hugofraud,001,2026-04-13_11h02.34.755,GNG,2024.2.4,Win32,60.0240096,,,,,,,,,540.882,541.215,,,,,,24,Burger (beef),3,,,,1,,,,540.18,540.63,1,0.391,kb,1,1,0,0,0,29,0,29,0,1,,,,,,,
,,,hugofraud,001,2026-04-13_11h02.34.755,GNG,2024.2.4,Win32,60.0240096,,,,,,,,,542.197,542.865,,,,,,30,Onion rings,3,,,,1,,,,541.215,541.947,1,0.66,kb,1,1,0,0,0,30,0,30,0,1,,,,,,,
,,,hugofraud,001,2026-04-13_11h02.34.755,GNG,2024.2.4,Win32,60.0240096,,,,,,,,,543.548,544.032,,,,,,24,Burger (beef),3,,,,1,,,,542.865,543.298,1,0.353,kb,1,1,0,0,0,31,0,31,0,1,,,,,,,
,,,hugofraud,001,2026-04-13_11h02.34.755,GNG,2024.2.4,Win32,60.0240096,,,,,,,,,544.865,545.249,,,,,,30,Onion rings,3,,,,1,,,,544.032,544.615,1,0.498,kb,1,1,0,0,0,32,0,32,0,1,,,,,,,
,,,hugofraud,001,2026-04-13_11h02.34.755,GNG,2024.2.4,Win32,60.0240096,,,,,,,,,545.983,546.566,,,,,,16,"Salted nuts (Cashew, peanuts, pistacchios)",2,,,,1,,,,545.249,545.716,1,0.391,kb,1,1,0,0,0,33,0,33,0,1,,,,,,,
,,,hugofraud,001,2026-04-13_11h02.34.755,GNG,2024.2.4,Win32,60.0240096,,,,,,,,,547.676,548.218,,,,,,16,"Salted nuts (Cashew, peanuts, pistacchios)",2,,,,1,,,,546.566,547.404,1,0.759,kb,1,1,0,0,0,34,0,34,0,1,,,,,,,
,,,hugofraud,001,2026-04-13_11h02.34.755,GNG,2024.2.4,Win32,60.0240096,,,,,,,,,549.402,549.836,,,,,,6,Cut strawberry,1,,,,0,,,,548.218,549.141,1,0.857,kb,0,0,0,1,0,35,0,35,0,1,,,,,,,
,,,hugofraud,001,2026-04-13_11h02.34.755,GNG,2024.2.4,Win32,60.0240096,,,,,,,,,550.619,550.94,,,,,,17,"Salted nuts (Cashew, peanuts, pistacchios)",2,,,,1,,,,549.836,550.368,1,0.45,kb,1,1,0,0,0,36,0,36,0,1,,,,,,,
,,,hugofraud,001,2026-04-13_11h02.34.755,GNG,2024.2.4,Win32,60.0240096,,,,,,,,,551.502,551.987,,,,,,12,Crisps,2,,,,1,,,,550.94,551.252,1,0.228,kb,1,1,0,0,0,37,0,37,0,1,,,,,,,
,,,hugofraud,001,2026-04-13_11h02.34.755,GNG,2024.2.4,Win32,60.0240096,,,,,,,,,552.786,553.287,,,,,,17,"Salted nuts (Cashew, peanuts, pistacchios)",2,,,,1,,,,551.988,552.536,1,0.487,kb,1,1,0,0,0,38,0,38,0,1,,,,,,,
,,,hugofraud,001,2026-04-13_11h02.34.755,GNG,2024.2.4,Win32,60.0240096,,,,,,,,,554.087,554.754,,,,,,27,Kebab,3,,,,1,,,,553.288,553.836,1,0.465,kb,1,1,0,0,0,39,0,39,0,1,,,,,,,
,,,hugofraud,001,2026-04-13_11h02.34.755,GNG,2024.2.4,Win32,60.0240096,,,,,,,,,556.622,556.939,,,,,,30,Onion rings,3,,,,1,,,,554.754,556.355,0,,none,1,0,1,0,0,40,0,40,0,1,,,,,,,
,,,hugofraud,001,2026-04-13_11h02.34.755,GNG,2024.2.4,Win32,60.0240096,,,,,,,,,558.422,558.923,,,,,,10,"Dried fruits (apricot, mango)",1,,,,0,,,,556.939,558.156,1,1.135,kb,0,0,0,1,0,41,0,41,0,1,,,,,,,
,,,hugofraud,001,2026-04-13_11h02.34.755,GNG,2024.2.4,Win32,60.0240096,,,,,,,,,559.773,560.274,,,,,,28,Burger (vegetarian),3,,,,1,,,,558.923,559.523,1,0.503,kb,1,1,0,0,0,42,0,42,0,1,,,,,,,
,,,hugofraud,001,2026-04-13_11h02.34.755,GNG,2024.2.4,Win32,60.0240096,,,,,,,,,561.141,561.541,,,,,,17,"Salted nuts (Cashew, peanuts, pistacchios)",2,,,,1,,,,560.274,560.89,1,0.534,kb,1,1,0,0,0,43,0,43,0,1,,,,,,,
,,,hugofraud,001,2026-04-13_11h02.34.755,GNG,2024.2.4,Win32,60.0240096,,,,,,,,,562.474,562.925,,,,,,2,Cucumber slice,1,,,,1,,,,561.541,562.209,1,0.584,kb,1,1,0,0,0,44,0,44,0,1,,,,,,,
,,,hugofraud,001,2026-04-13_11h02.34.755,GNG,2024.2.4,Win32,60.0240096,,,,,,,,,563.526,564.276,,,,,,28,Burger (vegetarian),3,,,,1,,,,562.925,563.275,1,0.291,kb,1,1,0,0,0,45,0,45,0,1,,,,,,,
,,,hugofraud,001,2026-04-13_11h02.34.755,GNG,2024.2.4,Win32,60.0240096,,,,,,,,,565.009,565.376,,,,,,27,Kebab,3,,,,1,,,,564.276,564.758,1,0.403,kb,1,1,0,0,0,46,0,46,0,1,,,,,,,
,,,hugofraud,001,2026-04-13_11h02.34.755,GNG,2024.2.4,Win32,60.0240096,,,,,,,,,566.461,567.245,,,,,,11,Crisps,2,,,,1,,,,565.376,566.21,1,0.768,kb,1,1,0,0,0,47,0,47,0,1,,,,,,,
,,,hugofraud,001,2026-04-13_11h02.34.755,GNG,2024.2.4,Win32,60.0240096,,,,,,,,,567.894,568.679,,,,,,47,Gummy candies,5,,,,0,,,,567.245,567.644,1,0.323,kb,0,0,0,1,0,48,0,48,0,1,,,,,,,
,,,hugofraud,001,2026-04-13_11h02.34.755,GNG,2024.2.4,Win32,60.0240096,,,,,,,,,569.412,569.88,,,,,,1,Apple slice,1,,,,0,,,,568.679,569.161,1,0.405,kb,0,0,0,1,0,49,0,49,0,1,,,,,,,
,,,hugofraud,001,2026-04-13_11h02.34.755,GNG,2024.2.4,Win32,60.0240096,,,,,,,,,570.482,571.262,,,,,,16,"Salted nuts (Cashew, peanuts, pistacchios)",2,,,,1,,,,569.881,570.229,1,0.288,kb,1,1,0,0,0,50,0,50,0,1,,,,,,,
,,,hugofraud,001,2026-04-13_11h02.34.755,GNG,2024.2.4,Win32,60.0240096,,,,,,,,,572.081,572.414,,,,,,30,Onion rings,3,,,,1,,,,571.262,571.829,1,0.495,kb,1,1,0,0,0,51,0,51,0,1,,,,,,,
,,,hugofraud,001,2026-04-13_11h02.34.755,GNG,2024.2.4,Win32,60.0240096,,,,,,,,,573.046,573.663,,,,,,12,Crisps,2,,,,1,,,,572.414,572.78,1,0.282,kb,1,1,0,0,0,52,0,52,0,1,,,,,,,
,,,hugofraud,001,2026-04-13_11h02.34.755,GNG,2024.2.4,Win32,60.0240096,,,,,,,,,575.514,576.015,,,,,,41,"Chocolate snacks (e.g. Kinder, Knoppers)",5,,,,0,,,,573.663,575.264,0,,none,0,0,0,0,1,53,0,53,0,1,,,,,,,
,,,hugofraud,001,2026-04-13_11h02.34.755,GNG,2024.2.4,Win32,60.0240096,,,,,,,,,576.748,577.349,,,,,,2,Cucumber slice,1,,,,1,,,,576.015,576.482,1,0.384,kb,1,1,0,0,0,54,0,54,0,1,,,,,,,
,,,hugofraud,001,2026-04-13_11h02.34.755,GNG,2024.2.4,Win32,60.0240096,,,,,,,,,578.032,578.666,,,,,,28,Burger (vegetarian),3,,,,1,,,,577.35,577.782,1,0.355,kb,1,1,0,0,0,55,0,55,0,1,,,,,,,
,,,hugofraud,001,2026-04-13_11h02.34.755,GNG,2024.2.4,Win32,60.0240096,,,,,,,,,579.383,580,,,,,,11,Crisps,2,,,,1,,,,578.667,579.133,1,0.383,kb,1,1,0,0,0,56,0,56,0,1,,,,,,,
,,,hugofraud,001,2026-04-13_11h02.34.755,GNG,2024.2.4,Win32,60.0240096,,,,,,,,,580.7,581.235,,,,,,27,Kebab,3,,,,1,,,,580.001,580.436,1,0.345,kb,1,1,0,0,0,57,0,57,0,1,,,,,,,
,,,hugofraud,001,2026-04-13_11h02.34.755,GNG,2024.2.4,Win32,60.0240096,,,,,,,,,581.874,582.569,,,,,,2,Cucumber slice,1,,,,1,,,,581.235,581.62,1,0.31,kb,1,1,0,0,0,58,0,58,0,1,,,,,,,
,,,hugofraud,001,2026-04-13_11h02.34.755,GNG,2024.2.4,Win32,60.0240096,,,,,,,,,583.352,584.02,,,,,,17,"Salted nuts (Cashew, peanuts, pistacchios)",2,,,,1,,,,582.569,583.086,1,0.452,kb,1,1,0,0,0,59,0,59,0,1,,,,,,,
,,,hugofraud,001,2026-04-13_11h02.34.755,GNG,2024.2.4,Win32,60.0240096,,,,,,,,,584.52,585.137,,,,,,16,"Salted nuts (Cashew, peanuts, pistacchios)",2,,,,1,,,,584.02,584.27,1,0.164,kb,1,1,0,0,0,60,0,60,0,1,,,,,,,
,,,hugofraud,001,2026-04-13_11h02.34.755,GNG,2024.2.4,Win32,60.0240096,,,,,,,,,585.786,586.154,,,,,,12,Crisps,2,,,,1,,,,585.138,585.536,1,0.316,kb,1,1,0,0,0,61,0,61,0,1,,,,,,,
,,,hugofraud,001,2026-04-13_11h02.34.755,GNG,2024.2.4,Win32,60.0240096,,,,,,,,,586.787,587.487,,,,,,17,"Salted nuts (Cashew, peanuts, pistacchios)",2,,,,1,,,,586.154,586.521,1,0.289,kb,1,1,0,0,0,62,0,62,0,1,,,,,,,
,,,hugofraud,001,2026-04-13_11h02.34.755,GNG,2024.2.4,Win32,60.0240096,,,,,,,,,589.356,590.092,,,,,,33,Cinnamon roll,4,,,,0,,,,587.488,589.091,0,,none,0,0,0,0,1,63,0,63,0,1,,,,,,,
,,,hugofraud,001,2026-04-13_11h02.34.755,GNG,2024.2.4,Win32,60.0240096,,,,,,,,,591.957,592.508,,,,,,12,Crisps,2,,,,1,,,,590.092,591.69,0,,none,1,0,1,0,0,64,0,64,0,1,,,,,,,
,,,hugofraud,001,2026-04-13_11h02.34.755,GNG,2024.2.4,Win32,60.0240096,,,,,,,,,593.224,593.541,,,,,,2,Cucumber slice,1,,,,1,,,,592.508,592.973,1,0.39,kb,1,1,0,0,0,65,0,65,0,1,,,,,,,
,,,hugofraud,001,2026-04-13_11h02.34.755,GNG,2024.2.4,Win32,60.0240096,,,,,,,,,594.741,595.141,,,,,,24,Burger (beef),3,,,,1,,,,593.541,594.49,1,0.867,kb,1,1,0,0,0,66,0,66,0,1,,,,,,,
,,,hugofraud,001,2026-04-13_11h02.34.755,GNG,2024.2.4,Win32,60.0240096,,,,,,,,,596.992,597.575,,,,,,27,Kebab,3,,,,1,,,,595.141,596.742,0,,none,1,0,1,0,0,67,0,67,0,1,,,,,,,
,,,hugofraud,001,2026-04-13_11h02.34.755,GNG,2024.2.4,Win32,60.0240096,,,,,,,,,598.409,598.905,,,,,,12,Crisps,2,,,,1,,,,597.576,598.159,1,0.5,kb,1,1,0,0,0,68,0,68,0,1,,,,,,,
,,,hugofraud,001,2026-04-13_11h02.34.755,GNG,2024.2.4,Win32,60.0240096,,,,,,,,,599.678,600.362,,,,,,11,Crisps,2,,,,1,,,,598.905,599.411,1,0.43,kb,1,1,0,0,0,69,0,69,0,1,,,,,,,
,,,hugofraud,001,2026-04-13_11h02.34.755,GNG,2024.2.4,Win32,60.0240096,,,,,,,,,600.979,601.528,,,,,,2,Cucumber slice,1,,,,1,,,,600.363,600.728,1,0.282,kb,1,1,0,0,0,70,0,70,0,1,,,,,,,
,,,hugofraud,001,2026-04-13_11h02.34.755,GNG,2024.2.4,Win32,60.0240096,,,,,,,,,603.379,603.912,,,,,,24,Burger (beef),3,,,,1,,,,601.528,603.129,0,,none,1,0,1,0,0,71,0,71,0,1,,,,,,,
,,,hugofraud,001,2026-04-13_11h02.34.755,GNG,2024.2.4,Win32,60.0240096,,,,,,,,,605.764,606.08,,,,,,41,"Chocolate snacks (e.g. Kinder, Knoppers)",5,,,,0,,,,603.912,605.513,0,,none,0,0,0,0,1,72,0,72,0,1,,,,,,,
,,,hugofraud,001,2026-04-13_11h02.34.755,GNG,2024.2.4,Win32,60.0240096,,,,,,,,,607.498,607.898,,,,,,16,"Salted nuts (Cashew, peanuts, pistacchios)",2,,,,1,,,,606.08,607.247,1,1.084,kb,1,1,0,0,0,73,0,73,0,1,,,,,,,
,,,hugofraud,001,2026-04-13_11h02.34.755,GNG,2024.2.4,Win32,60.0240096,,,,,,,,,608.967,609.532,,,,,,2,Cucumber slice,1,,,,1,,,,607.898,608.715,1,0.735,kb,1,1,0,0,0,74,0,74,0,1,,,,,,,
,,,hugofraud,001,2026-04-13_11h02.34.755,GNG,2024.2.4,Win32,60.0240096,,,,,,,,,610.933,611.718,,,,,,30,Onion rings,3,,,,1,,,,609.532,610.683,1,1.067,kb,1,1,0,0,0,75,0,75,0,1,,,,,,,
,,,hugofraud,001,2026-04-13_11h02.34.755,GNG,2024.2.4,Win32,60.0240096,,,,,,,,,613.585,614.335,,,,,,30,Onion rings,3,,,,1,,,,611.718,613.323,0,,none,1,0,1,0,0,76,0,76,0,1,,,,,,,
,,,hugofraud,001,2026-04-13_11h02.34.755,GNG,2024.2.4,Win32,60.0240096,,,,,,,,,616.186,616.703,,,,,,17,"Salted nuts (Cashew, peanuts, pistacchios)",2,,,,1,,,,614.335,615.935,0,,none,1,0,1,0,0,77,0,77,0,1,,,,,,,
,,,hugofraud,001,2026-04-13_11h02.34.755,GNG,2024.2.4,Win32,60.0240096,,,,,,,,,618.57,618.94,,,,,,44,Chocolate bar,5,,,,0,,,,616.703,618.304,0,,none,0,0,0,0,1,78,0,78,0,1,,,,,,,
,,,hugofraud,001,2026-04-13_11h02.34.755,GNG,2024.2.4,Win32,60.0240096,,,,,,,,,619.755,620.221,,,,,,16,"Salted nuts (Cashew, peanuts, pistacchios)",2,,,,1,,,,618.94,619.504,1,0.493,kb,1,1,0,0,0,79,0,79,0,1,,,,,,,
,,,hugofraud,001,2026-04-13_11h02.34.755,GNG,2024.2.4,Win32,60.0240096,,,,,,,,,,,,,,,,,,,,,,,,,,,,,,,,,,,,,,,,,3,0,3,0,1,,
,,,hugofraud,001,2026-04-13_11h02.34.755,GNG,2024.2.4,Win32,60.0240096,,,,,621.372,621.673,,,622.859,623.34,,,,,,54,Ice cream cone,6,,,,0,,620.221,621.372,621.675,622.607,1,0.862,kb,1,1,0,0,0,0,0,0,0,1,,,,,,,
,,,hugofraud,001,2026-04-13_11h02.34.755,GNG,2024.2.4,Win32,60.0240096,,,,,,,,,625.207,625.79,,,,,,33,Cinnamon roll,4,,,,0,,,,623.341,624.94,0,,none,1,0,1,0,0,1,0,1,0,1,,,,,,,
,,,hugofraud,001,2026-04-13_11h02.34.755,GNG,2024.2.4,Win32,60.0240096,,,,,,,,,626.191,626.508,,,,,,41,"Chocolate snacks (e.g. Kinder, Knoppers)",5,,,,0,,,,625.791,625.94,1,0.084,kb,1,1,0,0,0,2,0,2,0,1,,,,,,,
,,,hugofraud,001,2026-04-13_11h02.34.755,GNG,2024.2.4,Win32,60.0240096,,,,,,,,,627.575,628.242,,,,,,37,Pain au chocolat,4,,,,0,,,,626.508,627.324,1,0.738,kb,1,1,0,0,0,3,0,3,0,1,,,,,,,
,,,hugofraud,001,2026-04-13_11h02.34.755,GNG,2024.2.4,Win32,60.0240096,,,,,,,,,629.376,629.693,,,,,,54,Ice cream cone,6,,,,0,,,,628.243,629.125,1,0.808,kb,1,1,0,0,0,4,0,4,0,1,,,,,,,
,,,hugofraud,001,2026-04-13_11h02.34.755,GNG,2024.2.4,Win32,60.0240096,,,,,,,,,630.613,630.993,,,,,,33,Cinnamon roll,4,,,,0,,,,629.694,630.35,1,0.595,kb,1,1,0,0,0,5,0,5,0,1,,,,,,,
,,,hugofraud,001,2026-04-13_11h02.34.755,GNG,2024.2.4,Win32,60.0240096,,,,,,,,,631.761,632.152,,,,,,6,Cut strawberry,1,,,,0,,,,630.993,631.51,1,0.451,kb,1,1,0,0,0,6,0,6,0,1,,,,,,,
,,,hugofraud,001,2026-04-13_11h02.34.755,GNG,2024.2.4,Win32,60.0240096,,,,,,,,,632.885,633.245,,,,,,39,Muffin,4,,,,0,,,,632.152,632.617,1,0.394,kb,1,1,0,0,0,7,0,7,0,1,,,,,,,
,,,hugofraud,001,2026-04-13_11h02.34.755,GNG,2024.2.4,Win32,60.0240096,,,,,,,,,634.329,634.662,,,,,,37,Pain au chocolat,4,,,,0,,,,633.246,634.078,1,0.774,kb,1,1,0,0,0,8,0,8,0,1,,,,,,,
,,,hugofraud,001,2026-04-13_11h02.34.755,GNG,2024.2.4,Win32,60.0240096,,,,,,,,,635.613,636.229,,,,,,50,Chocolate biscuit,5,,,,0,,,,634.662,635.346,1,0.602,kb,1,1,0,0,0,9,0,9,0,1,,,,,,,
,,,hugofraud,001,2026-04-13_11h02.34.755,GNG,2024.2.4,Win32,60.0240096,,,,,,,,,636.829,637.597,,,,,,39,Muffin,4,,,,0,,,,636.229,636.579,1,0.27,kb,1,1,0,0,0,10,0,10,0,1,,,,,,,
,,,hugofraud,001,2026-04-13_11h02.34.755,GNG,2024.2.4,Win32,60.0240096,,,,,,,,,639.464,639.949,,,,,,28,Burger (vegetarian),3,,,,1,,,,637.598,639.198,0,,none,0,0,0,0,1,11,0,11,0,1,,,,,,,
,,,hugofraud,001,2026-04-13_11h02.34.755,GNG,2024.2.4,Win32,60.0240096,,,,,,,,,640.55,641.265,,,,,,47,Gummy candies,5,,,,0,,,,639.95,640.299,1,0.274,kb,1,1,0,0,0,12,0,12,0,1,,,,,,,
,,,hugofraud,001,2026-04-13_11h02.34.755,GNG,2024.2.4,Win32,60.0240096,,,,,,,,,641.951,642.266,,,,,,6,Cut strawberry,1,,,,0,,,,641.265,641.699,1,0.37,kb,1,1,0,0,0,13,0,13,0,1,,,,,,,
,,,hugofraud,001,2026-04-13_11h02.34.755,GNG,2024.2.4,Win32,60.0240096,,,,,,,,,644.116,644.733,,,,,,24,Burger (beef),3,,,,1,,,,642.266,643.866,0,,none,0,0,0,0,1,14,0,14,0,1,,,,,,,
,,,hugofraud,001,2026-04-13_11h02.34.755,GNG,2024.2.4,Win32,60.0240096,,,,,,,,,645.434,646.184,,,,,,1,Apple slice,1,,,,0,,,,644.734,645.183,1,0.382,kb,1,1,0,0,0,15,0,15,0,1,,,,,,,
,,,hugofraud,001,2026-04-13_11h02.34.755,GNG,2024.2.4,Win32,60.0240096,,,,,,,,,648.036,648.435,,,,,,30,Onion rings,3,,,,1,,,,646.184,647.785,0,,none,0,0,0,0,1,16,0,16,0,1,,,,,,,
,,,hugofraud,001,2026-04-13_11h02.34.755,GNG,2024.2.4,Win32,60.0240096,,,,,,,,,649.203,649.953,,,,,,1,Apple slice,1,,,,0,,,,648.435,648.952,1,0.452,kb,1,1,0,0,0,17,0,17,0,1,,,,,,,
,,,hugofraud,001,2026-04-13_11h02.34.755,GNG,2024.2.4,Win32,60.0240096,,,,,,,,,650.671,651.226,,,,,,50,Chocolate biscuit,5,,,,0,,,,649.954,650.404,1,0.371,kb,1,1,0,0,0,18,0,18,0,1,,,,,,,
,,,hugofraud,001,2026-04-13_11h02.34.755,GNG,2024.2.4,Win32,60.0240096,,,,,,,,,653.089,653.689,,,,,,30,Onion rings,3,,,,1,,,,651.226,652.822,0,,none,0,0,0,0,1,19,0,19,0,1,,,,,,,
,,,hugofraud,001,2026-04-13_11h02.34.755,GNG,2024.2.4,Win32,60.0240096,,,,,,,,,654.455,655.189,,,,,,44,Chocolate bar,5,,,,0,,,,653.689,654.189,1,0.416,kb,1,1,0,0,0,20,0,20,0,1,,,,,,,
,,,hugofraud,001,2026-04-13_11h02.34.755,GNG,2024.2.4,Win32,60.0240096,,,,,,,,,655.956,656.357,,,,,,53,Ice cream cup,6,,,,0,,,,655.189,655.706,1,0.434,kb,1,1,0,0,0,21,0,21,0,1,,,,,,,
,,,hugofraud,001,2026-04-13_11h02.34.755,GNG,2024.2.4,Win32,60.0240096,,,,,,,,,657.223,657.973,,,,,,10,"Dried fruits (apricot, mango)",1,,,,0,,,,656.357,656.973,1,0.542,kb,1,1,0,0,0,22,0,22,0,1,,,,,,,
,,,hugofraud,001,2026-04-13_11h02.34.755,GNG,2024.2.4,Win32,60.0240096,,,,,,,,,658.691,659.224,,,,,,31,Croissant,4,,,,0,,,,657.974,658.441,1,0.401,kb,1,1,0,0,0,23,0,23,0,1,,,,,,,
,,,hugofraud,001,2026-04-13_11h02.34.755,GNG,2024.2.4,Win32,60.0240096,,,,,,,,,660.142,660.559,,,,,,41,"Chocolate snacks (e.g. Kinder, Knoppers)",5,,,,0,,,,659.224,659.891,1,0.591,kb,1,1,0,0,0,24,0,24,0,1,,,,,,,
,,,hugofraud,001,2026-04-13_11h02.34.755,GNG,2024.2.4,Win32,60.0240096,,,,,,,,,661.659,662.259,,,,,,54,Ice cream cone,6,,,,0,,,,660.559,661.408,1,0.762,kb,1,1,0,0,0,25,0,25,0,1,,,,,,,
,,,hugofraud,001,2026-04-13_11h02.34.755,GNG,2024.2.4,Win32,60.0240096,,,,,,,,,663.096,663.512,,,,,,39,Muffin,4,,,,0,,,,662.259,662.829,1,0.513,kb,1,1,0,0,0,26,0,26,0,1,,,,,,,
,,,hugofraud,001,2026-04-13_11h02.34.755,GNG,2024.2.4,Win32,60.0240096,,,,,,,,,664.26,664.844,,,,,,31,Croissant,4,,,,0,,,,663.512,663.996,1,0.414,kb,1,1,0,0,0,27,0,27,0,1,,,,,,,
,,,hugofraud,001,2026-04-13_11h02.34.755,GNG,2024.2.4,Win32,60.0240096,,,,,,,,,665.694,666.495,,,,,,47,Gummy candies,5,,,,0,,,,664.845,665.444,1,0.516,kb,1,1,0,0,0,28,0,28,0,1,,,,,,,
,,,hugofraud,001,2026-04-13_11h02.34.755,GNG,2024.2.4,Win32,60.0240096,,,,,,,,,667.196,667.563,,,,,,53,Ice cream cup,6,,,,0,,,,666.496,666.929,1,0.35,kb,1,1,0,0,0,29,0,29,0,1,,,,,,,
,,,hugofraud,001,2026-04-13_11h02.34.755,GNG,2024.2.4,Win32,60.0240096,,,,,,,,,668.246,668.862,,,,,,58,Mochi,6,,,,0,,,,667.563,667.996,1,0.352,kb,1,1,0,0,0,30,0,30,0,1,,,,,,,
,,,hugofraud,001,2026-04-13_11h02.34.755,GNG,2024.2.4,Win32,60.0240096,,,,,,,,,670.714,671.064,,,,,,27,Kebab,3,,,,1,,,,668.863,670.463,0,,none,0,0,0,0,1,31,0,31,0,1,,,,,,,
,,,hugofraud,001,2026-04-13_11h02.34.755,GNG,2024.2.4,Win32,60.0240096,,,,,,,,,671.898,672.483,,,,,,57,Fondant au chocolat,6,,,,0,,,,671.064,671.648,1,0.496,kb,1,1,0,0,0,32,0,32,0,1,,,,,,,
,,,hugofraud,001,2026-04-13_11h02.34.755,GNG,2024.2.4,Win32,60.0240096,,,,,,,,,673.315,674.117,,,,,,1,Apple slice,1,,,,0,,,,672.483,673.064,1,0.504,kb,1,1,0,0,0,33,0,33,0,1,,,,,,,
,,,hugofraud,001,2026-04-13_11h02.34.755,GNG,2024.2.4,Win32,60.0240096,,,,,,,,,674.932,675.566,,,,,,12,Crisps,2,,,,1,,,,674.118,674.682,1,0.486,kb,0,0,0,1,0,34,0,34,0,1,,,,,,,
,,,hugofraud,001,2026-04-13_11h02.34.755,GNG,2024.2.4,Win32,60.0240096,,,,,,,,,676.433,677.184,,,,,,10,"Dried fruits (apricot, mango)",1,,,,0,,,,675.567,676.183,1,0.533,kb,1,1,0,0,0,35,0,35,0,1,,,,,,,
,,,hugofraud,001,2026-04-13_11h02.34.755,GNG,2024.2.4,Win32,60.0240096,,,,,,,,,677.968,678.651,,,,,,57,Fondant au chocolat,6,,,,0,,,,677.184,677.717,1,0.455,kb,1,1,0,0,0,36,0,36,0,1,,,,,,,
,,,hugofraud,001,2026-04-13_11h02.34.755,GNG,2024.2.4,Win32,60.0240096,,,,,,,,,679.535,679.889,,,,,,58,Mochi,6,,,,0,,,,678.651,679.284,1,0.568,kb,1,1,0,0,0,37,0,37,0,1,,,,,,,
,,,hugofraud,001,2026-04-13_11h02.34.755,GNG,2024.2.4,Win32,60.0240096,,,,,,,,,681.757,682.121,,,,,,27,Kebab,3,,,,1,,,,679.889,681.494,0,,none,0,0,0,0,1,38,0,38,0,1,,,,,,,
,,,hugofraud,001,2026-04-13_11h02.34.755,GNG,2024.2.4,Win32,60.0240096,,,,,,,,,682.954,683.737,,,,,,57,Fondant au chocolat,6,,,,0,,,,682.121,682.689,1,0.512,kb,1,1,0,0,0,39,0,39,0,1,,,,,,,
,,,hugofraud,001,2026-04-13_11h02.34.755,GNG,2024.2.4,Win32,60.0240096,,,,,,,,,684.688,685.071,,,,,,47,Gummy candies,5,,,,0,,,,683.738,684.424,1,0.597,kb,1,1,0,0,0,40,0,40,0,1,,,,,,,
,,,hugofraud,001,2026-04-13_11h02.34.755,GNG,2024.2.4,Win32,60.0240096,,,,,,,,,686.922,687.355,,,,,,17,"Salted nuts (Cashew, peanuts, pistacchios)",2,,,,1,,,,685.071,686.672,0,,none,0,0,0,0,1,41,0,41,0,1,,,,,,,
,,,hugofraud,001,2026-04-13_11h02.34.755,GNG,2024.2.4,Win32,60.0240096,,,,,,,,,689.207,689.94,,,,,,41,"Chocolate snacks (e.g. Kinder, Knoppers)",5,,,,0,,,,687.356,688.956,0,,none,1,0,1,0,0,42,0,42,0,1,,,,,,,
,,,hugofraud,001,2026-04-13_11h02.34.755,GNG,2024.2.4,Win32,60.0240096,,,,,,,,,690.708,691.341,,,,,,2,Cucumber slice,1,,,,1,,,,689.94,690.457,1,0.43,kb,0,0,0,1,0,43,0,43,0,1,,,,,,,
,,,hugofraud,001,2026-04-13_11h02.34.755,GNG,2024.2.4,Win32,60.0240096,,,,,,,,,693.208,693.742,,,,,,41,"Chocolate snacks (e.g. Kinder, Knoppers)",5,,,,0,,,,691.341,692.942,0,,none,1,0,1,0,0,44,0,44,0,1,,,,,,,
,,,hugofraud,001,2026-04-13_11h02.34.755,GNG,2024.2.4,Win32,60.0240096,,,,,,,,,694.593,695.11,,,,,,57,Fondant au chocolat,6,,,,0,,,,693.743,694.342,1,0.54,kb,1,1,0,0,0,45,0,45,0,1,,,,,,,
,,,hugofraud,001,2026-04-13_11h02.34.755,GNG,2024.2.4,Win32,60.0240096,,,,,,,,,695.893,696.21,,,,,,37,Pain au chocolat,4,,,,0,,,,695.11,695.643,1,0.447,kb,1,1,0,0,0,46,0,46,0,1,,,,,,,
,,,hugofraud,001,2026-04-13_11h02.34.755,GNG,2024.2.4,Win32,60.0240096,,,,,,,,,697.311,697.845,,,,,,58,Mochi,6,,,,0,,,,696.21,697.06,1,0.772,kb,1,1,0,0,0,47,0,47,0,1,,,,,,,
,,,hugofraud,001,2026-04-13_11h02.34.755,GNG,2024.2.4,Win32,60.0240096,,,,,,,,,699.112,699.811,,,,,,33,Cinnamon roll,4,,,,0,,,,697.845,698.845,1,0.916,kb,1,1,0,0,0,48,0,48,0,1,,,,,,,
,,,hugofraud,001,2026-04-13_11h02.34.755,GNG,2024.2.4,Win32,60.0240096,,,,,,,,,700.563,701.146,,,,,,6,Cut strawberry,1,,,,0,,,,699.812,700.312,1,0.442,kb,1,1,0,0,0,49,0,49,0,1,,,,,,,
,,,hugofraud,001,2026-04-13_11h02.34.755,GNG,2024.2.4,Win32,60.0240096,,,,,,,,,701.847,702.3,,,,,,58,Mochi,6,,,,0,,,,701.146,701.58,1,0.374,kb,1,1,0,0,0,50,0,50,0,1,,,,,,,
,,,hugofraud,001,2026-04-13_11h02.34.755,GNG,2024.2.4,Win32,60.0240096,,,,,,,,,703.33,703.769,,,,,,10,"Dried fruits (apricot, mango)",1,,,,0,,,,702.301,703.08,1,0.695,kb,1,1,0,0,0,51,0,51,0,1,,,,,,,
,,,hugofraud,001,2026-04-13_11h02.34.755,GNG,2024.2.4,Win32,60.0240096,,,,,,,,,704.697,705.481,,,,,,53,Ice cream cup,6,,,,0,,,,703.769,704.43,1,0.589,kb,1,1,0,0,0,52,0,52,0,1,,,,,,,
,,,hugofraud,001,2026-04-13_11h02.34.755,GNG,2024.2.4,Win32,60.0240096,,,,,,,,,706.332,706.899,,,,,,28,Burger (vegetarian),3,,,,1,,,,705.481,706.081,1,0.521,kb,0,0,0,1,0,53,0,53,0,1,,,,,,,
,,,hugofraud,001,2026-04-13_11h02.34.755,GNG,2024.2.4,Win32,60.0240096,,,,,,,,,707.782,708.567,,,,,,1,Apple slice,1,,,,0,,,,706.899,707.532,1,0.556,kb,1,1,0,0,0,54,0,54,0,1,,,,,,,
,,,hugofraud,001,2026-04-13_11h02.34.755,GNG,2024.2.4,Win32,60.0240096,,,,,,,,,709.517,710.084,,,,,,47,Gummy candies,5,,,,0,,,,708.567,709.266,1,0.619,kb,1,1,0,0,0,55,0,55,0,1,,,,,,,
,,,hugofraud,001,2026-04-13_11h02.34.755,GNG,2024.2.4,Win32,60.0240096,,,,,,,,,711.241,711.751,,,,,,39,Muffin,4,,,,0,,,,710.084,710.985,1,0.84,kb,1,1,0,0,0,56,0,56,0,1,,,,,,,
,,,hugofraud,001,2026-04-13_11h02.34.755,GNG,2024.2.4,Win32,60.0240096,,,,,,,,,713.603,714.254,,,,,,50,Chocolate biscuit,5,,,,0,,,,711.751,713.352,0,,none,1,0,1,0,0,57,0,57,0,1,,,,,,,
,,,hugofraud,001,2026-04-13_11h02.34.755,GNG,2024.2.4,Win32,60.0240096,,,,,,,,,716.12,716.872,,,,,,11,Crisps,2,,,,1,,,,714.254,715.853,0,,none,0,0,0,0,1,58,0,58,0,1,,,,,,,
,,,hugofraud,001,2026-04-13_11h02.34.755,GNG,2024.2.4,Win32,60.0240096,,,,,,,,,717.639,718.288,,,,,,44,Chocolate bar,5,,,,0,,,,716.872,717.388,1,0.442,kb,1,1,0,0,0,59,0,59,0,1,,,,,,,
,,,hugofraud,001,2026-04-13_11h02.34.755,GNG,2024.2.4,Win32,60.0240096,,,,,,,,,719.139,719.705,,,,,,10,"Dried fruits (apricot, mango)",1,,,,0,,,,718.289,718.873,1,0.504,kb,1,1,0,0,0,60,0,60,0,1,,,,,,,
,,,hugofraud,001,2026-04-13_11h02.34.755,GNG,2024.2.4,Win32,60.0240096,,,,,,,,,720.376,720.724,,,,,,54,Ice cream cone,6,,,,0,,,,719.705,720.122,1,0.352,kb,1,1,0,0,0,61,0,61,0,1,,,,,,,
,,,hugofraud,001,2026-04-13_11h02.34.755,GNG,2024.2.4,Win32,60.0240096,,,,,,,,,721.524,722.177,,,,,,33,Cinnamon roll,4,,,,0,,,,720.724,721.257,1,0.457,kb,1,1,0,0,0,62,0,62,0,1,,,,,,,
,,,hugofraud,001,2026-04-13_11h02.34.755,GNG,2024.2.4,Win32,60.0240096,,,,,,,,,722.977,723.658,,,,,,50,Chocolate biscuit,5,,,,0,,,,722.177,722.725,1,0.466,kb,1,1,0,0,0,63,0,63,0,1,,,,,,,
,,,hugofraud,001,2026-04-13_11h02.34.755,GNG,2024.2.4,Win32,60.0240096,,,,,,,,,724.358,724.709,,,,,,12,Crisps,2,,,,1,,,,723.659,724.107,1,0.386,kb,0,0,0,1,0,64,0,64,0,1,,,,,,,
,,,hugofraud,001,2026-04-13_11h02.34.755,GNG,2024.2.4,Win32,60.0240096,,,,,,,,,725.975,726.409,,,,,,6,Cut strawberry,1,,,,0,,,,724.709,725.725,1,0.937,kb,1,1,0,0,0,65,0,65,0,1,,,,,,,
,,,hugofraud,001,2026-04-13_11h02.34.755,GNG,2024.2.4,Win32,60.0240096,,,,,,,,,726.859,727.243,,,,,,53,Ice cream cup,6,,,,0,,,,726.409,726.593,1,0.099,kb,1,1,0,0,0,66,0,66,0,1,,,,,,,
,,,hugofraud,001,2026-04-13_11h02.34.755,GNG,2024.2.4,Win32,60.0240096,,,,,,,,,727.643,728.36,,,,,,44,Chocolate bar,5,,,,0,,,,727.244,727.393,1,0.063,kb,1,1,0,0,0,67,0,67,0,1,,,,,,,
,,,hugofraud,001,2026-04-13_11h02.34.755,GNG,2024.2.4,Win32,60.0240096,,,,,,,,,728.81,729.377,,,,,,16,"Salted nuts (Cashew, peanuts, pistacchios)",2,,,,1,,,,728.36,728.56,1,0.121,kb,0,0,0,1,0,68,0,68,0,1,,,,,,,
,,,hugofraud,001,2026-04-13_11h02.34.755,GNG,2024.2.4,Win32,60.0240096,,,,,,,,,729.977,730.448,,,,,,31,Croissant,4,,,,0,,,,729.377,729.711,1,0.267,kb,1,1,0,0,0,69,0,69,0,1,,,,,,,
,,,hugofraud,001,2026-04-13_11h02.34.755,GNG,2024.2.4,Win32,60.0240096,,,,,,,,,730.995,731.448,,,,,,54,Ice cream cone,6,,,,0,,,,730.449,730.729,1,0.199,kb,1,1,0,0,0,70,0,70,0,1,,,,,,,
,,,hugofraud,001,2026-04-13_11h02.34.755,GNG,2024.2.4,Win32,60.0240096,,,,,,,,,732.056,732.457,,,,,,31,Croissant,4,,,,0,,,,731.449,731.795,1,0.265,kb,1,1,0,0,0,71,0,71,0,1,,,,,,,
,,,hugofraud,001,2026-04-13_11h02.34.755,GNG,2024.2.4,Win32,60.0240096,,,,,,,,,732.983,733.414,,,,,,10,"Dried fruits (apricot, mango)",1,,,,0,,,,732.457,732.723,1,0.192,kb,1,1,0,0,0,72,0,72,0,1,,,,,,,
,,,hugofraud,001,2026-04-13_11h02.34.755,GNG,2024.2.4,Win32,60.0240096,,,,,,,,,735.264,736.014,,,,,,16,"Salted nuts (Cashew, peanuts, pistacchios)",2,,,,1,,,,733.414,735.013,0,,none,0,0,0,0,1,73,0,73,0,1,,,,,,,
,,,hugofraud,001,2026-04-13_11h02.34.755,GNG,2024.2.4,Win32,60.0240096,,,,,,,,,737.881,738.199,,,,,,44,Chocolate bar,5,,,,0,,,,736.014,737.615,0,,none,1,0,1,0,0,74,0,74,0,1,,,,,,,
,,,hugofraud,001,2026-04-13_11h02.34.755,GNG,2024.2.4,Win32,60.0240096,,,,,,,,,740.05,740.733,,,,,,2,Cucumber slice,1,,,,1,,,,738.199,739.799,0,,none,0,0,0,0,1,75,0,75,0,1,,,,,,,
,,,hugofraud,001,2026-04-13_11h02.34.755,GNG,2024.2.4,Win32,60.0240096,,,,,,,,,742.601,743.335,,,,,,24,Burger (beef),3,,,,1,,,,740.733,742.334,0,,none,0,0,0,0,1,76,0,76,0,1,,,,,,,
,,,hugofraud,001,2026-04-13_11h02.34.755,GNG,2024.2.4,Win32,60.0240096,,,,,,,,,744.151,744.919,,,,,,37,Pain au chocolat,4,,,,0,,,,743.335,743.901,1,0.482,kb,1,1,0,0,0,77,0,77,0,1,,,,,,,
,,,hugofraud,001,2026-04-13_11h02.34.755,GNG,2024.2.4,Win32,60.0240096,,,,,,,,,745.653,745.968,,,,,,47,Gummy candies,5,,,,0,,,,744.919,745.386,1,0.389,kb,1,1,0,0,0,78,0,78,0,1,,,,,,,
,,,hugofraud,001,2026-04-13_11h02.34.755,GNG,2024.2.4,Win32,60.0240096,,,,,,,,,746.82,747.253,,,,,,53,Ice cream cup,6,,,,0,,,,745.969,746.569,1,0.538,kb,1,1,0,0,0,79,0,79,0,1,,,,,,,
,,,hugofraud,001,2026-04-13_11h02.34.755,GNG,2024.2.4,Win32,60.0240096,,,,,,,,,,,,,,,,,,,,,,,,,,,,,,,,,,,,,,,,,4,0,4,0,1,,
,,,hugofraud,001,2026-04-13_11h02.34.755,GNG,2024.2.4,Win32,60.0240096,,,,,775.852,776.151,,,778.019,778.736,,,,,,53,Ice cream cup,6,,,,0,,747.254,775.852,776.153,777.752,0,,none,0,0,0,0,1,0,0,0,0,1,,,,,,,
,,,hugofraud,001,2026-04-13_11h02.34.755,GNG,2024.2.4,Win32,60.0240096,,,,,,,,,780.587,781.153,,,,,,28,Burger (vegetarian),3,,,,1,,,,778.737,780.336,0,,none,1,0,1,0,0,1,0,1,0,1,,,,,,,
,,,hugofraud,001,2026-04-13_11h02.34.755,GNG,2024.2.4,Win32,60.0240096,,,,,,,,,781.874,782.554,,,,,,11,Crisps,2,,,,1,,,,781.154,781.621,1,0.386,kb,1,1,0,0,0,2,0,2,0,1,,,,,,,
,,,hugofraud,001,2026-04-13_11h02.34.755,GNG,2024.2.4,Win32,60.0240096,,,,,,,,,783.906,784.506,,,,,,12,Crisps,2,,,,1,,,,782.555,783.655,1,1.031,kb,1,1,0,0,0,3,0,3,0,1,,,,,,,
,,,hugofraud,001,2026-04-13_11h02.34.755,GNG,2024.2.4,Win32,60.0240096,,,,,,,,,786.358,787.023,,,,,,17,"Salted nuts (Cashew, peanuts, pistacchios)",2,,,,1,,,,784.506,786.106,0,,none,1,0,1,0,0,4,0,4,0,1,,,,,,,
,,,hugofraud,001,2026-04-13_11h02.34.755,GNG,2024.2.4,Win32,60.0240096,,,,,,,,,787.857,788.491,,,,,,28,Burger (vegetarian),3,,,,1,,,,787.023,787.607,1,0.508,kb,1,1,0,0,0,5,0,5,0,1,,,,,,,
,,,hugofraud,001,2026-04-13_11h02.34.755,GNG,2024.2.4,Win32,60.0240096,,,,,,,,,790.358,790.775,,,,,,24,Burger (beef),3,,,,1,,,,788.491,790.092,0,,none,1,0,1,0,0,6,0,6,0,1,,,,,,,
,,,hugofraud,001,2026-04-13_11h02.34.755,GNG,2024.2.4,Win32,60.0240096,,,,,,,,,792.626,793.362,,,,,,58,Mochi,6,,,,0,,,,790.775,792.376,0,,none,0,0,0,0,1,7,0,7,0,1,,,,,,,
,,,hugofraud,001,2026-04-13_11h02.34.755,GNG,2024.2.4,Win32,60.0240096,,,,,,,,,795.211,795.611,,,,,,11,Crisps,2,,,,1,,,,793.362,794.961,0,,none,1,0,1,0,0,8,0,8,0,1,,,,,,,
,,,hugofraud,001,2026-04-13_11h02.34.755,GNG,2024.2.4,Win32,60.0240096,,,,,,,,,797.462,797.779,,,,,,11,Crisps,2,,,,1,,,,795.611,797.212,0,,none,1,0,1,0,0,9,0,9,0,1,,,,,,,
,,,hugofraud,001,2026-04-13_11h02.34.755,GNG,2024.2.4,Win32,60.0240096,,,,,,,,,799.63,800.147,,,,,,2,Cucumber slice,1,,,,1,,,,797.779,799.38,0,,none,1,0,1,0,0,10,0,10,0,1,,,,,,,
,,,hugofraud,001,2026-04-13_11h02.34.755,GNG,2024.2.4,Win32,60.0240096,,,,,,,,,801.999,802.598,,,,,,50,Chocolate biscuit,5,,,,0,,,,800.147,801.748,0,,none,0,0,0,0,1,11,0,11,0,1,,,,,,,
,,,hugofraud,001,2026-04-13_11h02.34.755,GNG,2024.2.4,Win32,60.0240096,,,,,,,,,804.449,805.034,,,,,,12,Crisps,2,,,,1,,,,802.598,804.199,0,,none,1,0,1,0,0,12,0,12,0,1,,,,,,,
,,,hugofraud,001,2026-04-13_11h02.34.755,GNG,2024.2.4,Win32,60.0240096,,,,,,,,,806.486,807.067,,,,,,17,"Salted nuts (Cashew, peanuts, pistacchios)",2,,,,1,,,,805.034,806.22,1,1.123,kb,1,1,0,0,0,13,0,13,0,1,,,,,,,
,,,hugofraud,001,2026-04-13_11h02.34.755,GNG,2024.2.4,Win32,60.0240096,,,,,,,,,808.934,809.419,,,,,,1,Apple slice,1,,,,0,,,,807.067,808.668,0,,none,0,0,0,0,1,14,0,14,0,1,,,,,,,
,,,hugofraud,001,2026-04-13_11h02.34.755,GNG,2024.2.4,Win32,60.0240096,,,,,,,,,811.269,811.869,,,,,,39,Muffin,4,,,,0,,,,809.419,811.019,0,,none,0,0,0,0,1,15,0,15,0,1,,,,,,,
,,,hugofraud,001,2026-04-13_11h02.34.755,GNG,2024.2.4,Win32,60.0240096,,,,,,,,,813.724,814.137,,,,,,27,Kebab,3,,,,1,,,,811.87,813.47,0,,none,1,0,1,0,0,16,0,16,0,1,,,,,,,
,,,hugofraud,001,2026-04-13_11h02.34.755,GNG,2024.2.4,Win32,60.0240096,,,,,,,,,815.989,816.38,,,,,,17,"Salted nuts (Cashew, peanuts, pistacchios)",2,,,,1,,,,814.137,815.738,0,,none,1,0,1,0,0,17,0,17,0,1,,,,,,,
,,,hugofraud,001,2026-04-13_11h02.34.755,GNG,2024.2.4,Win32,60.0240096,,,,,,,,,816.845,817.339,,,,,,27,Kebab,3,,,,1,,,,816.38,816.579,1,0.124,kb,1,1,0,0,0,18,0,18,0,1,,,,,,,
,,,hugofraud,001,2026-04-13_11h02.34.755,GNG,2024.2.4,Win32,60.0240096,,,,,,,,,819.19,819.706,,,,,,16,"Salted nuts (Cashew, peanuts, pistacchios)",2,,,,1,,,,817.339,818.94,0,,none,1,0,1,0,0,19,0,19,0,1,,,,,,,
,,,hugofraud,001,2026-04-13_11h02.34.755,GNG,2024.2.4,Win32,60.0240096,,,,,,,,,820.758,821.207,,,,,,11,Crisps,2,,,,1,,,,819.707,820.491,1,0.702,kb,1,1,0,0,0,20,0,20,0,1,,,,,,,
,,,hugofraud,001,2026-04-13_11h02.34.755,GNG,2024.2.4,Win32,60.0240096,,,,,,,,,823.058,823.36,,,,,,30,Onion rings,3,,,,1,,,,821.207,822.808,0,,none,1,0,1,0,0,21,0,21,0,1,,,,,,,
,,,hugofraud,001,2026-04-13_11h02.34.755,GNG,2024.2.4,Win32,60.0240096,,,,,,,,,824.564,825.093,,,,,,57,Fondant au chocolat,6,,,,0,,,,823.36,824.295,1,0.863,kb,0,0,0,1,0,22,0,22,0,1,,,,,,,
,,,hugofraud,001,2026-04-13_11h02.34.755,GNG,2024.2.4,Win32,60.0240096,,,,,,,,,826.944,827.495,,,,,,30,Onion rings,3,,,,1,,,,825.094,826.693,0,,none,1,0,1,0,0,23,0,23,0,1,,,,,,,
,,,hugofraud,001,2026-04-13_11h02.34.755,GNG,2024.2.4,Win32,60.0240096,,,,,,,,,828.911,829.562,,,,,,31,Croissant,4,,,,0,,,,827.495,828.645,1,1.065,kb,0,0,0,1,0,24,0,24,0,1,,,,,,,
,,,hugofraud,001,2026-04-13_11h02.34.755,GNG,2024.2.4,Win32,60.0240096,,,,,,,,,831.413,831.762,,,,,,17,"Salted nuts (Cashew, peanuts, pistacchios)",2,,,,1,,,,829.562,831.163,0,,none,1,0,1,0,0,25,0,25,0,1,,,,,,,
,,,hugofraud,001,2026-04-13_11h02.34.755,GNG,2024.2.4,Win32,60.0240096,,,,,,,,,833.615,834.386,,,,,,2,Cucumber slice,1,,,,1,,,,831.764,833.364,0,,none,1,0,1,0,0,26,0,26,0,1,,,,,,,
,,,hugofraud,001,2026-04-13_11h02.34.755,GNG,2024.2.4,Win32,60.0240096,,,,,,,,,836.252,836.6,,,,,,2,Cucumber slice,1,,,,1,,,,834.387,835.985,0,,none,1,0,1,0,0,27,0,27,0,1,,,,,,,
,,,hugofraud,001,2026-04-13_11h02.34.755,GNG,2024.2.4,Win32,60.0240096,,,,,,,,,838.467,839.166,,,,,,27,Kebab,3,,,,1,,,,836.601,838.2,0,,none,1,0,1,0,0,28,0,28,0,1,,,,,,,
,,,hugofraud,001,2026-04-13_11h02.34.755,GNG,2024.2.4,Win32,60.0240096,,,,,,,,,841.018,841.468,,,,,,12,Crisps,2,,,,1,,,,839.167,840.768,0,,none,1,0,1,0,0,29,0,29,0,1,,,,,,,
,,,hugofraud,001,2026-04-13_11h02.34.755,GNG,2024.2.4,Win32,60.0240096,,,,,,,,,843.32,843.852,,,,,,16,"Salted nuts (Cashew, peanuts, pistacchios)",2,,,,1,,,,841.468,843.069,0,,none,1,0,1,0,0,30,0,30,0,1,,,,,,,
,,,hugofraud,001,2026-04-13_11h02.34.755,GNG,2024.2.4,Win32,60.0240096,,,,,,,,,845.003,845.521,,,,,,6,Cut strawberry,1,,,,0,,,,843.852,844.753,1,0.825,kb,0,0,0,1,0,31,0,31,0,1,,,,,,,
,,,hugofraud,001,2026-04-13_11h02.34.755,GNG,2024.2.4,Win32,60.0240096,,,,,,,,,847.391,847.888,,,,,,24,Burger (beef),3,,,,1,,,,845.521,847.123,0,,none,1,0,1,0,0,32,0,32,0,1,,,,,,,
,,,hugofraud,001,2026-04-13_11h02.34.755,GNG,2024.2.4,Win32,60.0240096,,,,,,,,,848.588,849.122,,,,,,2,Cucumber slice,1,,,,1,,,,847.888,848.338,1,0.366,kb,1,1,0,0,0,33,0,33,0,1,,,,,,,
,,,hugofraud,001,2026-04-13_11h02.34.755,GNG,2024.2.4,Win32,60.0240096,,,,,,,,,849.889,850.556,,,,,,24,Burger (beef),3,,,,1,,,,849.122,849.638,1,0.451,kb,1,1,0,0,0,34,0,34,0,1,,,,,,,
,,,hugofraud,001,2026-04-13_11h02.34.755,GNG,2024.2.4,Win32,60.0240096,,,,,,,,,852.409,853.09,,,,,,44,Chocolate bar,5,,,,0,,,,850.557,852.157,0,,none,0,0,0,0,1,35,0,35,0,1,,,,,,,
,,,hugofraud,001,2026-04-13_11h02.34.755,GNG,2024.2.4,Win32,60.0240096,,,,,,,,,853.76,854.281,,,,,,2,Cucumber slice,1,,,,1,,,,853.09,853.508,1,0.334,kb,1,1,0,0,0,36,0,36,0,1,,,,,,,
,,,hugofraud,001,2026-04-13_11h02.34.755,GNG,2024.2.4,Win32,60.0240096,,,,,,,,,855.025,855.677,,,,,,16,"Salted nuts (Cashew, peanuts, pistacchios)",2,,,,1,,,,854.281,854.774,1,0.421,kb,1,1,0,0,0,37,0,37,0,1,,,,,,,
,,,hugofraud,001,2026-04-13_11h02.34.755,GNG,2024.2.4,Win32,60.0240096,,,,,,,,,856.376,856.862,,,,,,16,"Salted nuts (Cashew, peanuts, pistacchios)",2,,,,1,,,,855.677,856.126,1,0.372,kb,1,1,0,0,0,38,0,38,0,1,,,,,,,
,,,hugofraud,001,2026-04-13_11h02.34.755,GNG,2024.2.4,Win32,60.0240096,,,,,,,,,857.677,858.393,,,,,,2,Cucumber slice,1,,,,1,,,,856.862,857.426,1,0.485,kb,1,1,0,0,0,39,0,39,0,1,,,,,,,
,,,hugofraud,001,2026-04-13_11h02.34.755,GNG,2024.2.4,Win32,60.0240096,,,,,,,,,859.077,859.728,,,,,,30,Onion rings,3,,,,1,,,,858.394,858.827,1,0.354,kb,1,1,0,0,0,40,0,40,0,1,,,,,,,
,,,hugofraud,001,2026-04-13_11h02.34.755,GNG,2024.2.4,Win32,60.0240096,,,,,,,,,860.445,861.061,,,,,,30,Onion rings,3,,,,1,,,,859.728,860.178,1,0.369,kb,1,1,0,0,0,41,0,41,0,1,,,,,,,
,,,hugofraud,001,2026-04-13_11h02.34.755,GNG,2024.2.4,Win32,60.0240096,,,,,,,,,861.979,862.678,,,,,,37,Pain au chocolat,4,,,,0,,,,861.061,861.729,1,0.589,kb,0,0,0,1,0,42,0,42,0,1,,,,,,,
,,,hugofraud,001,2026-04-13_11h02.34.755,GNG,2024.2.4,Win32,60.0240096,,,,,,,,,863.683,864.281,,,,,,30,Onion rings,3,,,,1,,,,862.679,863.432,1,0.693,kb,1,1,0,0,0,43,0,43,0,1,,,,,,,
,,,hugofraud,001,2026-04-13_11h02.34.755,GNG,2024.2.4,Win32,60.0240096,,,,,,,,,865.021,865.447,,,,,,12,Crisps,2,,,,1,,,,864.281,864.763,1,0.398,kb,1,1,0,0,0,44,0,44,0,1,,,,,,,
,,,hugofraud,001,2026-04-13_11h02.34.755,GNG,2024.2.4,Win32,60.0240096,,,,,,,,,866.15,866.498,,,,,,24,Burger (beef),3,,,,1,,,,865.447,865.897,1,0.393,kb,1,1,0,0,0,45,0,45,0,1,,,,,,,
,,,hugofraud,001,2026-04-13_11h02.34.755,GNG,2024.2.4,Win32,60.0240096,,,,,,,,,867.284,867.665,,,,,,24,Burger (beef),3,,,,1,,,,866.498,867.023,1,0.452,kb,1,1,0,0,0,46,0,46,0,1,,,,,,,
,,,hugofraud,001,2026-04-13_11h02.34.755,GNG,2024.2.4,Win32,60.0240096,,,,,,,,,869.517,869.816,,,,,,47,Gummy candies,5,,,,0,,,,867.666,869.266,0,,none,0,0,0,0,1,47,0,47,0,1,,,,,,,
,,,hugofraud,001,2026-04-13_11h02.34.755,GNG,2024.2.4,Win32,60.0240096,,,,,,,,,871.684,872.052,,,,,,41,"Chocolate snacks (e.g. Kinder, Knoppers)",5,,,,0,,,,869.816,871.418,0,,none,0,0,0,0,1,48,0,48,0,1,,,,,,,
,,,hugofraud,001,2026-04-13_11h02.34.755,GNG,2024.2.4,Win32,60.0240096,,,,,,,,,872.801,873.384,,,,,,11,Crisps,2,,,,1,,,,872.052,872.551,1,0.424,kb,1,1,0,0,0,49,0,49,0,1,,,,,,,
,,,hugofraud,001,2026-04-13_11h02.34.755,GNG,2024.2.4,Win32,60.0240096,,,,,,,,,874.201,874.535,,,,,,28,Burger (vegetarian),3,,,,1,,,,873.385,873.935,1,0.47,kb,1,1,0,0,0,50,0,50,0,1,,,,,,,
,,,hugofraud,001,2026-04-13_11h02.34.755,GNG,2024.2.4,Win32,60.0240096,,,,,,,,,875.422,876.169,,,,,,16,"Salted nuts (Cashew, peanuts, pistacchios)",2,,,,1,,,,874.535,875.17,1,0.573,kb,1,1,0,0,0,51,0,51,0,1,,,,,,,
,,,hugofraud,001,2026-04-13_11h02.34.755,GNG,2024.2.4,Win32,60.0240096,,,,,,,,,877.136,877.72,,,,,,27,Kebab,3,,,,1,,,,876.17,876.886,1,0.658,kb,1,1,0,0,0,52,0,52,0,1,,,,,,,
,,,hugofraud,001,2026-04-13_11h02.34.755,GNG,2024.2.4,Win32,60.0240096,,,,,,,,,878.423,879.054,,,,,,30,Onion rings,3,,,,1,,,,877.72,878.17,1,0.354,kb,1,1,0,0,0,53,0,53,0,1,,,,,,,
,,,hugofraud,001,2026-04-13_11h02.34.755,GNG,2024.2.4,Win32,60.0240096,,,,,,,,,880.905,881.689,,,,,,53,Ice cream cup,6,,,,0,,,,879.055,880.654,0,,none,0,0,0,0,1,54,0,54,0,1,,,,,,,
,,,hugofraud,001,2026-04-13_11h02.34.755,GNG,2024.2.4,Win32,60.0240096,,,,,,,,,883.556,884.192,,,,,,33,Cinnamon roll,4,,,,0,,,,881.689,883.289,0,,none,0,0,0,0,1,55,0,55,0,1,,,,,,,
,,,hugofraud,001,2026-04-13_11h02.34.755,GNG,2024.2.4,Win32,60.0240096,,,,,,,,,885.027,885.641,,,,,,12,Crisps,2,,,,1,,,,884.192,884.774,1,0.508,kb,1,1,0,0,0,56,0,56,0,1,,,,,,,
,,,hugofraud,001,2026-04-13_11h02.34.755,GNG,2024.2.4,Win32,60.0240096,,,,,,,,,887.496,888.11,,,,,,54,Ice cream cone,6,,,,0,,,,885.642,887.241,0,,none,0,0,0,0,1,57,0,57,0,1,,,,,,,
,,,hugofraud,001,2026-04-13_11h02.34.755,GNG,2024.2.4,Win32,60.0240096,,,,,,,,,888.892,889.609,,,,,,17,"Salted nuts (Cashew, peanuts, pistacchios)",2,,,,1,,,,888.11,888.628,1,0.457,kb,1,1,0,0,0,58,0,58,0,1,,,,,,,
,,,hugofraud,001,2026-04-13_11h02.34.755,GNG,2024.2.4,Win32,60.0240096,,,,,,,,,891.46,891.86,,,,,,2,Cucumber slice,1,,,,1,,,,889.609,891.21,0,,none,1,0,1,0,0,59,0,59,0,1,,,,,,,
,,,hugofraud,001,2026-04-13_11h02.34.755,GNG,2024.2.4,Win32,60.0240096,,,,,,,,,893.712,894.034,,,,,,28,Burger (vegetarian),3,,,,1,,,,891.861,893.461,0,,none,1,0,1,0,0,60,0,60,0,1,,,,,,,
,,,hugofraud,001,2026-04-13_11h02.34.755,GNG,2024.2.4,Win32,60.0240096,,,,,,,,,895.879,896.408,,,,,,30,Onion rings,3,,,,1,,,,894.035,895.629,0,,none,1,0,1,0,0,61,0,61,0,1,,,,,,,
,,,hugofraud,001,2026-04-13_11h02.34.755,GNG,2024.2.4,Win32,60.0240096,,,,,,,,,898.264,898.581,,,,,,27,Kebab,3,,,,1,,,,896.409,898,0,,none,1,0,1,0,0,62,0,62,0,1,,,,,,,
,,,hugofraud,001,2026-04-13_11h02.34.755,GNG,2024.2.4,Win32,60.0240096,,,,,,,,,900.432,900.815,,,,,,10,"Dried fruits (apricot, mango)",1,,,,0,,,,898.581,900.181,0,,none,0,0,0,0,1,63,0,63,0,1,,,,,,,
,,,hugofraud,001,2026-04-13_11h02.34.755,GNG,2024.2.4,Win32,60.0240096,,,,,,,,,901.633,902.417,,,,,,12,Crisps,2,,,,1,,,,900.815,901.382,1,0.486,kb,1,1,0,0,0,64,0,64,0,1,,,,,,,
,,,hugofraud,001,2026-04-13_11h02.34.755,GNG,2024.2.4,Win32,60.0240096,,,,,,,,,903.717,904.039,,,,,,24,Burger (beef),3,,,,1,,,,902.417,903.466,1,0.966,kb,1,1,0,0,0,65,0,65,0,1,,,,,,,
,,,hugofraud,001,2026-04-13_11h02.34.755,GNG,2024.2.4,Win32,60.0240096,,,,,,,,,905.904,906.301,,,,,,27,Kebab,3,,,,1,,,,904.039,905.635,0,,none,1,0,1,0,0,66,0,66,0,1,,,,,,,
,,,hugofraud,001,2026-04-13_11h02.34.755,GNG,2024.2.4,Win32,60.0240096,,,,,,,,,907.52,908.202,,,,,,24,Burger (beef),3,,,,1,,,,906.302,907.269,1,0.887,kb,1,1,0,0,0,67,0,67,0,1,,,,,,,
,,,hugofraud,001,2026-04-13_11h02.34.755,GNG,2024.2.4,Win32,60.0240096,,,,,,,,,908.952,909.737,,,,,,11,Crisps,2,,,,1,,,,908.202,908.687,1,0.402,kb,1,1,0,0,0,68,0,68,0,1,,,,,,,
,,,hugofraud,001,2026-04-13_11h02.34.755,GNG,2024.2.4,Win32,60.0240096,,,,,,,,,911.587,911.971,,,,,,17,"Salted nuts (Cashew, peanuts, pistacchios)",2,,,,1,,,,909.737,911.337,0,,none,1,0,1,0,0,69,0,69,0,1,,,,,,,
,,,hugofraud,001,2026-04-13_11h02.34.755,GNG,2024.2.4,Win32,60.0240096,,,,,,,,,913.072,913.439,,,,,,11,Crisps,2,,,,1,,,,911.971,912.821,1,0.77,kb,1,1,0,0,0,70,0,70,0,1,,,,,,,
,,,hugofraud,001,2026-04-13_11h02.34.755,GNG,2024.2.4,Win32,60.0240096,,,,,,,,,914.372,914.857,,,,,,16,"Salted nuts (Cashew, peanuts, pistacchios)",2,,,,1,,,,913.439,914.108,1,0.592,kb,1,1,0,0,0,71,0,71,0,1,,,,,,,
,,,hugofraud,001,2026-04-13_11h02.34.755,GNG,2024.2.4,Win32,60.0240096,,,,,,,,,915.858,916.289,,,,,,28,Burger (vegetarian),3,,,,1,,,,914.857,915.606,1,0.688,kb,1,1,0,0,0,72,0,72,0,1,,,,,,,
,,,hugofraud,001,2026-04-13_11h02.34.755,GNG,2024.2.4,Win32,60.0240096,,,,,,,,,918.158,918.708,,,,,,30,Onion rings,3,,,,1,,,,916.29,917.891,0,,none,1,0,1,0,0,73,0,73,0,1,,,,,,,
,,,hugofraud,001,2026-04-13_11h02.34.755,GNG,2024.2.4,Win32,60.0240096,,,,,,,,,919.508,920.275,,,,,,28,Burger (vegetarian),3,,,,1,,,,918.709,919.257,1,0.475,kb,1,1,0,0,0,74,0,74,0,1,,,,,,,
,,,hugofraud,001,2026-04-13_11h02.34.755,GNG,2024.2.4,Win32,60.0240096,,,,,,,,,920.959,921.343,,,,,,12,Crisps,2,,,,1,,,,920.275,920.692,1,0.336,kb,1,1,0,0,0,75,0,75,0,1,,,,,,,
,,,hugofraud,001,2026-04-13_11h02.34.755,GNG,2024.2.4,Win32,60.0240096,,,,,,,,,922.443,923.077,,,,,,28,Burger (vegetarian),3,,,,1,,,,921.343,922.193,1,0.771,kb,1,1,0,0,0,76,0,76,0,1,,,,,,,
,,,hugofraud,001,2026-04-13_11h02.34.755,GNG,2024.2.4,Win32,60.0240096,,,,,,,,,923.777,924.529,,,,,,17,"Salted nuts (Cashew, peanuts, pistacchios)",2,,,,1,,,,923.077,923.526,1,0.367,kb,1,1,0,0,0,77,0,77,0,1,,,,,,,
,,,hugofraud,001,2026-04-13_11h02.34.755,GNG,2024.2.4,Win32,60.0240096,,,,,,,,,925.295,925.944,,,,,,16,"Salted nuts (Cashew, peanuts, pistacchios)",2,,,,1,,,,924.529,925.028,1,0.403,kb,1,1,0,0,0,78,0,78,0,1,,,,,,,
,,,hugofraud,001,2026-04-13_11h02.34.755,GNG,2024.2.4,Win32,60.0240096,,,,,,,,,926.663,927.397,,,,,,27,Kebab,3,,,,1,,,,925.944,926.411,1,0.401,kb,1,1,0,0,0,79,0,79,0,1,,,,,,,
,,,hugofraud,001,2026-04-13_11h02.34.755,GNG,2024.2.4,Win32,60.0240096,,,,,,,,,,,,,,,,,,,,,,,,,,,,,,,,,,,,,,,,,5,0,5,0,1,,
,,,hugofraud,001,2026-04-13_11h02.34.755,GNG,2024.2.4,Win32,60.0240096,,,,,,,,,,,,,,,,,,,,,,,,,,,,,,,,,,,,,,,,,,,,,,927.397,930.397
