aat_ruleOrder,Setup.started,Setup.stopped,participant,session,date,expName,psychopyVersion,OS,frameRate,AAT_instructions.started,AAT_instructions.stopped,AAT_fixation.started,AAT_fixation.stopped,AAT_practice_trial.started,AAT_practice_trial.stopped,aat_prac_img,aat_prac_rt,aat_prac_direction,aat_prac_velocity,aat_prac_responded,aat_prac_loop.thisRepN,aat_prac_loop.thisTrialN,aat_prac_loop.thisN,aat_prac_loop.thisIndex,aat_prac_loop.ran,Food_item,Food_name,Category,Cat_name,Meat,Image_file0,Cond,Practice_image_file,AAT_block_start.started,AAT_block_start.stopped,AAT_trial.started,AAT_trial.stopped,aat_block,aat_food_item,aat_food_name,aat_category,aat_cond,aat_compatible,aat_img_file,aat_rt,aat_direction,aat_velocity,aat_responded,aat_trial_loop.thisRepN,aat_trial_loop.thisTrialN,aat_trial_loop.thisN,aat_trial_loop.thisIndex,aat_trial_loop.ran,AAT_break.started,AAT_break.stopped,Bye.started,Bye.stopped
1,0.0036,0.0037,052224,001,2026-03-27_13h08.25.880,AAT,2024.2.4,MacIntel,57.80346821,,,,,,,,,,,,,,,,,,,,,,,,,,,,,,,,,,,,,,,,,,,,,,,,
,,,052224,001,2026-03-27_13h08.25.880,AAT,2024.2.4,MacIntel,57.80346821,0.0038,0.6195,,,,,,,,,,,,,,,,,,,,,,,,,,,,,,,,,,,,,,,,,,,,,,
,,,052224,001,2026-03-27_13h08.25.880,AAT,2024.2.4,MacIntel,57.80346821,,,0.6196,1.0538,,,,,,,,,,,,,,,,,,,,,,,,,,,,,,,,,,,,,,,,,,,,
,,,052224,001,2026-03-27_13h08.25.880,AAT,2024.2.4,MacIntel,57.80346821,,,1.0611,1.603,1.6033,2.7199,Practice_pictures/Practice_sushi.png,0.1335,approach,1.706415945,1,0,0,0,2,1,3,,0,Practice,0,Practice_sushi,1,Practice_pictures/Practice_sushi.png,,,,,,,,,,,,,,,,,,,,,,,,
,,,052224,001,2026-03-27_13h08.25.880,AAT,2024.2.4,MacIntel,57.80346821,,,3.0365,3.3531,3.3532,3.8529,Practice_pictures/Practice_kiwi.png,0.1168,approach,1.557123411,1,0,1,1,1,1,2,,0,Practice,0,Practice_kiwi,0,Practice_pictures/Practice_kiwi.png,,,,,,,,,,,,,,,,,,,,,,,,
,,,052224,001,2026-03-27_13h08.25.880,AAT,2024.2.4,MacIntel,57.80346821,,,4.1538,4.8362,4.8363,5.2531,Practice_pictures/Practice_brocoli.png,0.1329,approach,1.430904422,1,0,2,2,0,1,1,,0,Practice,0,Practice_brocoli.png,1,Practice_pictures/Practice_brocoli.png,,,,,,,,,,,,,,,,,,,,,,,,
,,,052224,001,2026-03-27_13h08.25.880,AAT,2024.2.4,MacIntel,57.80346821,,,5.5542,5.8695,5.8697,6.537,Practice_pictures/Practice_cake.png,0.2671,approach,0.704946471,1,0,3,3,3,1,4,,0,Practice,0,Practice_cake,0,Practice_pictures/Practice_cake.png,,,,,,,,,,,,,,,,,,,,,,,,
,,,052224,001,2026-03-27_13h08.25.880,AAT,2024.2.4,MacIntel,57.80346821,,,8.3042,8.9367,,,,,,,,,,,,,,,,,,,,,6.8547,7.5196,8.9375,9.9031,1,20,Tortillas,2,1,incompatible,Items_pictures/20_tortillas.png,0.1502,avoid,1.25820827,1,0,0,0,0,1,,,,
,,,052224,001,2026-03-27_13h08.25.880,AAT,2024.2.4,MacIntel,57.80346821,,,10.2207,10.7199,,,,,,,,,,,,,,,,,,,,,,,10.7205,11.153,1,9,Healthy cracker (Darvida),1,1,incompatible,Items_pictures/9_healthy_cracker.png,0.134,avoid,1.586563599,1,1,0,1,0,1,,,,
,,,052224,001,2026-03-27_13h08.25.880,AAT,2024.2.4,MacIntel,57.80346821,,,11.4535,12.0868,,,,,,,,,,,,,,,,,,,,,,,12.0873,12.5362,1,18,Popcorn,2,1,incompatible,Items_pictures/18_popcorn.png,0.1498,avoid,1.581427838,1,2,0,2,0,1,,,,
,,,052224,001,2026-03-27_13h08.25.880,AAT,2024.2.4,MacIntel,57.80346821,,,12.8535,13.5378,,,,,,,,,,,,,,,,,,,,,,,13.5387,13.9696,1,36,Pretzel,4,1,incompatible,Items_pictures/36_pretzel.png,0.1331,avoid,1.442400294,1,3,0,3,0,1,,,,
,,,052224,001,2026-03-27_13h08.25.880,AAT,2024.2.4,MacIntel,57.80346821,,,14.2868,14.5862,,,,,,,,,,,,,,,,,,,,,,,14.5864,15.2363,1,60,Cupcake,6,0,compatible,Items_pictures/60_cupcake.png,0.15,avoid,1.361929406,1,4,0,4,0,1,,,,
,,,052224,001,2026-03-27_13h08.25.880,AAT,2024.2.4,MacIntel,57.80346821,,,15.7529,16.2028,,,,,,,,,,,,,,,,,,,,,,,16.2031,16.6196,1,43,"Chocolate snacks (e.g. Kinder, Knoppers)",5,0,compatible,Items_pictures/43_chocolate_snack.png,0.1167,avoid,1.317838897,1,5,0,5,0,1,,,,
,,,052224,001,2026-03-27_13h08.25.880,AAT,2024.2.4,MacIntel,57.80346821,,,17.1363,17.6365,,,,,,,,,,,,,,,,,,,,,,,17.637,17.9205,1,53,Ice cream cup,6,0,compatible,Items_pictures/53_ice_cream.png,0.2831,avoid,0.704337302,1,6,0,6,0,1,,,,
,,,052224,001,2026-03-27_13h08.25.880,AAT,2024.2.4,MacIntel,57.80346821,,,18.4362,18.736,,,,,,,,,,,,,,,,,,,,,,,18.7363,19.1861,1,55,Creme brulee,6,0,compatible,Items_pictures/55_creme_brulee.png,0.1501,avoid,1.311857648,1,7,0,7,0,1,,,,
,,,052224,001,2026-03-27_13h08.25.880,AAT,2024.2.4,MacIntel,57.80346821,,,19.7028,20.4533,,,,,,,,,,,,,,,,,,,,,,,20.4537,20.887,1,41,"Chocolate snacks (e.g. Kinder, Knoppers)",5,0,compatible,Items_pictures/41_chocolate_snack.png,0.1508,avoid,1.062836053,1,8,0,8,0,1,,,,
,,,052224,001,2026-03-27_13h08.25.880,AAT,2024.2.4,MacIntel,57.80346821,,,21.4029,22.0031,,,,,,,,,,,,,,,,,,,,,,,22.0035,22.4355,1,30,Onion rings,3,1,incompatible,Items_pictures/30_onion_rings.png,0.1491,avoid,1.543496647,1,9,0,9,0,1,,,,
,,,052224,001,2026-03-27_13h08.25.880,AAT,2024.2.4,MacIntel,57.80346821,,,22.7368,23.3694,,,,,,,,,,,,,,,,,,,,,,,23.3696,23.8361,1,60,Cupcake,6,0,compatible,Items_pictures/60_cupcake.png,0.1169,approach,1.813961929,1,10,0,10,0,1,,,,
,,,052224,001,2026-03-27_13h08.25.880,AAT,2024.2.4,MacIntel,57.80346821,,,24.1365,24.6694,,,,,,,,,,,,,,,,,,,,,,,24.6696,25.1027,1,43,"Chocolate snacks (e.g. Kinder, Knoppers)",5,0,compatible,Items_pictures/43_chocolate_snack.png,0.1251,approach,1.80763033,1,11,0,11,0,1,,,,
,,,052224,001,2026-03-27_13h08.25.880,AAT,2024.2.4,MacIntel,57.80346821,,,25.4202,26.036,,,,,,,,,,,,,,,,,,,,,,,26.0363,26.4534,1,18,Popcorn,2,1,incompatible,Items_pictures/18_popcorn.png,0.1337,approach,1.591686754,1,12,0,12,0,1,,,,
,,,052224,001,2026-03-27_13h08.25.880,AAT,2024.2.4,MacIntel,57.80346821,,,26.9695,27.7198,,,,,,,,,,,,,,,,,,,,,,,27.7206,28.3699,1,6,Cut strawberry,1,0,compatible,Items_pictures/6_strawberries.png,0.1335,approach,1.635333918,1,13,0,13,0,1,,,,
,,,052224,001,2026-03-27_13h08.25.880,AAT,2024.2.4,MacIntel,57.80346821,,,28.686,29.4028,,,,,,,,,,,,,,,,,,,,,,,29.403,29.8529,1,5,Bell pepper,1,1,incompatible,Items_pictures/5_bell_pepper.png,0.1166,approach,1.594789263,1,14,0,14,0,1,,,,
,,,052224,001,2026-03-27_13h08.25.880,AAT,2024.2.4,MacIntel,57.80346821,,,30.3695,30.7027,,,,,,,,,,,,,,,,,,,,,,,30.7028,31.1701,1,44,Chocolate bar,5,0,compatible,Items_pictures/44_chocolate_snack.png,0.1336,approach,1.166295493,1,15,0,15,0,1,,,,
,,,052224,001,2026-03-27_13h08.25.880,AAT,2024.2.4,MacIntel,57.80346821,,,31.4867,31.9028,,,,,,,,,,,,,,,,,,,,,,,31.903,33.1368,1,20,Tortillas,2,1,incompatible,Items_pictures/20_tortillas.png,0.7007,approach,0.241711201,1,16,0,16,0,1,,,,
,,,052224,001,2026-03-27_13h08.25.880,AAT,2024.2.4,MacIntel,57.80346821,,,33.6528,34.1362,,,,,,,,,,,,,,,,,,,,,,,34.1364,34.6027,1,43,"Chocolate snacks (e.g. Kinder, Knoppers)",5,0,compatible,Items_pictures/43_chocolate_snack.png,0.1334,approach,1.673265181,1,17,0,17,0,1,,,,
,,,052224,001,2026-03-27_13h08.25.880,AAT,2024.2.4,MacIntel,57.80346821,,,34.9201,35.2866,,,,,,,,,,,,,,,,,,,,,,,35.2871,35.7859,1,56,Macarons,6,0,compatible,Items_pictures/56_macaron.png,0.1498,approach,1.390654631,1,18,0,18,0,1,,,,
,,,052224,001,2026-03-27_13h08.25.880,AAT,2024.2.4,MacIntel,57.80346821,,,36.0867,36.7693,,,,,,,,,,,,,,,,,,,,,,,36.7696,37.2195,1,34,Donuts,4,0,compatible,Items_pictures/34_donuts.png,0.15,approach,1.303410297,1,19,0,19,0,1,,,,
,,,052224,001,2026-03-27_13h08.25.880,AAT,2024.2.4,MacIntel,57.80346821,,,37.536,38.336,,,,,,,,,,,,,,,,,,,,,,,38.3363,38.7695,1,36,Pretzel,4,1,incompatible,Items_pictures/36_pretzel.png,0.15,approach,1.408174098,1,20,0,20,0,1,,,,
,,,052224,001,2026-03-27_13h08.25.880,AAT,2024.2.4,MacIntel,57.80346821,,,39.2861,39.9863,,,,,,,,,,,,,,,,,,,,,,,39.9868,40.4525,1,1,Apple slice,1,0,compatible,Items_pictures/1_apple.png,0.1497,approach,1.300039037,1,21,0,21,0,1,,,,
,,,052224,001,2026-03-27_13h08.25.880,AAT,2024.2.4,MacIntel,57.80346821,,,40.7533,41.5197,,,,,,,,,,,,,,,,,,,,,,,41.5201,42.1193,1,28,Burger (vegetarian),3,1,incompatible,Items_pictures/28_veg_burger.png,0.2001,approach,0.93775266,1,22,0,22,0,1,,,,
,,,052224,001,2026-03-27_13h08.25.880,AAT,2024.2.4,MacIntel,57.80346821,,,42.6361,42.9359,,,,,,,,,,,,,,,,,,,,,,,42.9363,43.5362,1,1,Apple slice,1,0,compatible,Items_pictures/1_apple.png,0.2003,approach,0.978329481,1,23,0,23,0,1,,,,
,,,052224,001,2026-03-27_13h08.25.880,AAT,2024.2.4,MacIntel,57.80346821,,,43.8535,44.5858,,,,,,,,,,,,,,,,,,,,,,,44.5862,45.1035,1,5,Bell pepper,1,1,incompatible,Items_pictures/5_bell_pepper.png,0.134,approach,1.238904007,1,24,0,24,0,1,,,,
,,,052224,001,2026-03-27_13h08.25.880,AAT,2024.2.4,MacIntel,57.80346821,,,45.6193,46.2695,,,,,,,,,,,,,,,,,,,,,,,46.2698,46.7535,1,28,Burger (vegetarian),3,1,incompatible,Items_pictures/28_veg_burger.png,0.167,approach,1.011194172,1,25,0,25,0,1,,,,
,,,052224,001,2026-03-27_13h08.25.880,AAT,2024.2.4,MacIntel,57.80346821,,,47.2694,47.7859,,,,,,,,,,,,,,,,,,,,,,,47.7862,48.2526,1,25,French fries,3,1,incompatible,Items_pictures/25_fries.png,0.1668,approach,1.204738837,1,26,0,26,0,1,,,,
,,,052224,001,2026-03-27_13h08.25.880,AAT,2024.2.4,MacIntel,57.80346821,,,48.7693,49.3692,,,,,,,,,,,,,,,,,,,,,,,49.3695,49.8194,1,39,Muffin,4,0,compatible,Items_pictures/39_muffin.png,0.1501,approach,1.280860529,1,27,0,27,0,1,,,,
,,,052224,001,2026-03-27_13h08.25.880,AAT,2024.2.4,MacIntel,57.80346821,,,50.1359,50.703,,,,,,,,,,,,,,,,,,,,,,,50.7034,51.1862,1,1,Apple slice,1,0,compatible,Items_pictures/1_apple.png,0.1667,approach,0.977640857,1,28,0,28,0,1,,,,
,,,052224,001,2026-03-27_13h08.25.880,AAT,2024.2.4,MacIntel,57.80346821,,,51.5032,52.2359,,,,,,,,,,,,,,,,,,,,,,,52.2362,52.836,1,53,Ice cream cup,6,0,compatible,Items_pictures/53_ice_cream.png,0.2167,approach,0.79243535,1,29,0,29,0,1,,,,
,,,052224,001,2026-03-27_13h08.25.880,AAT,2024.2.4,MacIntel,57.80346821,,,53.1367,53.7693,,,,,,,,,,,,,,,,,,,,,,,53.7695,54.9367,1,37,Pain au chocolat,4,0,compatible,Items_pictures/37_pain_chocolat.png,0.8339,approach,0.188476533,1,30,0,30,0,1,,,,
,,,052224,001,2026-03-27_13h08.25.880,AAT,2024.2.4,MacIntel,57.80346821,,,55.2532,55.8859,,,,,,,,,,,,,,,,,,,,,,,55.886,56.386,1,42,"Chocolate snacks (e.g. Kinder, Knoppers)",5,0,compatible,Items_pictures/42_chocolate_snack.png,0.2002,approach,0.788348793,1,31,0,31,0,1,,,,
,,,052224,001,2026-03-27_13h08.25.880,AAT,2024.2.4,MacIntel,57.80346821,,,56.6866,57.0859,,,,,,,,,,,,,,,,,,,,,,,57.0861,57.686,1,36,Pretzel,4,1,incompatible,Items_pictures/36_pretzel.png,0.2834,approach,0.536012181,1,32,0,32,0,1,,,,
,,,052224,001,2026-03-27_13h08.25.880,AAT,2024.2.4,MacIntel,57.80346821,,,58.2032,58.5693,,,,,,,,,,,,,,,,,,,,,,,58.5695,59.136,1,15,Flute,2,1,incompatible,Items_pictures/15_flute.png,0.2333,approach,0.652696461,1,33,0,33,0,1,,,,
,,,052224,001,2026-03-27_13h08.25.880,AAT,2024.2.4,MacIntel,57.80346821,,,59.6366,60.0359,,,,,,,,,,,,,,,,,,,,,,,60.0361,60.5185,1,42,"Chocolate snacks (e.g. Kinder, Knoppers)",5,0,compatible,Items_pictures/42_chocolate_snack.png,0.2327,approach,0.731191612,1,34,0,34,0,1,,,,
,,,052224,001,2026-03-27_13h08.25.880,AAT,2024.2.4,MacIntel,57.80346821,,,60.8197,61.1182,,,,,,,,,,,,,,,,,,,,,,,61.1184,61.8693,1,56,Macarons,6,0,compatible,Items_pictures/56_macaron.png,0.2168,approach,0.69727577,1,35,0,35,0,1,,,,
,,,052224,001,2026-03-27_13h08.25.880,AAT,2024.2.4,MacIntel,57.80346821,,,62.1863,62.9028,,,,,,,,,,,,,,,,,,,,,,,62.9033,63.3693,1,34,Donuts,4,0,compatible,Items_pictures/34_donuts.png,0.184,approach,0.872469754,1,36,0,36,0,1,,,,
,,,052224,001,2026-03-27_13h08.25.880,AAT,2024.2.4,MacIntel,57.80346821,,,63.6699,64.0859,,,,,,,,,,,,,,,,,,,,,,,64.0861,64.8526,1,20,Tortillas,2,1,incompatible,Items_pictures/20_tortillas.png,0.2165,approach,0.7721367,1,37,0,37,0,1,,,,
,,,052224,001,2026-03-27_13h08.25.880,AAT,2024.2.4,MacIntel,57.80346821,,,65.3698,66.0691,,,,,,,,,,,,,,,,,,,,,,,66.0696,66.536,1,13,Crisps,2,1,incompatible,Items_pictures/13_crisps.png,0.1666,approach,1.212845808,1,38,0,38,0,1,,,,
,,,052224,001,2026-03-27_13h08.25.880,AAT,2024.2.4,MacIntel,57.80346821,,,67.0529,67.6025,,,,,,,,,,,,,,,,,,,,,,,67.6028,68.0349,1,13,Crisps,2,1,incompatible,Items_pictures/13_crisps.png,0.1167,approach,1.427850686,1,39,0,39,0,1,,,,
,,,052224,001,2026-03-27_13h08.25.880,AAT,2024.2.4,MacIntel,57.80346821,,,68.5358,69.3195,,,,,,,,,,,,,,,,,,,,,,,69.3198,70.3202,1,53,Ice cream cup,6,0,compatible,Items_pictures/53_ice_cream.png,0.6519,approach,0.253958175,1,40,0,40,0,1,,,,
,,,052224,001,2026-03-27_13h08.25.880,AAT,2024.2.4,MacIntel,57.80346821,,,70.6363,71.2859,,,,,,,,,,,,,,,,,,,,,,,71.2863,72.0849,1,22,Pizza (vegetarian),3,1,incompatible,Items_pictures/22_veg_pizza.png,0.2825,approach,0.648233611,1,41,0,41,0,1,,,,
,,,052224,001,2026-03-27_13h08.25.880,AAT,2024.2.4,MacIntel,57.80346821,,,72.586,73.0024,,,,,,,,,,,,,,,,,,,,,,,73.0027,73.5358,1,56,Macarons,6,0,compatible,Items_pictures/56_macaron.png,0.1668,approach,1.094655725,1,42,0,42,0,1,,,,
,,,052224,001,2026-03-27_13h08.25.880,AAT,2024.2.4,MacIntel,57.80346821,,,73.8367,74.4024,,,,,,,,,,,,,,,,,,,,,,,74.4027,74.9525,1,6,Cut strawberry,1,0,compatible,Items_pictures/6_strawberries.png,0.1835,approach,1.022639017,1,43,0,43,0,1,,,,
,,,052224,001,2026-03-27_13h08.25.880,AAT,2024.2.4,MacIntel,57.80346821,,,75.2695,75.9524,,,,,,,,,,,,,,,,,,,,,,,75.9527,76.4361,1,55,Creme brulee,6,0,compatible,Items_pictures/55_creme_brulee.png,0.1667,approach,1.139222792,1,44,0,44,0,1,,,,
,,,052224,001,2026-03-27_13h08.25.880,AAT,2024.2.4,MacIntel,57.80346821,,,76.7528,77.185,,,,,,,,,,,,,,,,,,,,,,,77.1853,77.7026,1,39,Muffin,4,0,compatible,Items_pictures/39_muffin.png,0.184,approach,1.162112079,1,45,0,45,0,1,,,,
,,,052224,001,2026-03-27_13h08.25.880,AAT,2024.2.4,MacIntel,57.80346821,,,78.0186,78.4354,,,,,,,,,,,,,,,,,,,,,,,78.4357,79.2024,1,5,Bell pepper,1,1,incompatible,Items_pictures/5_bell_pepper.png,0.3008,approach,0.565106637,1,46,0,46,0,1,,,,
,,,052224,001,2026-03-27_13h08.25.880,AAT,2024.2.4,MacIntel,57.80346821,,,79.703,80.1192,,,,,,,,,,,,,,,,,,,,,,,80.1193,82.136,1,39,Muffin,4,0,compatible,Items_pictures/39_muffin.png,,none,,0,47,0,47,0,1,,,,
,,,052224,001,2026-03-27_13h08.25.880,AAT,2024.2.4,MacIntel,57.80346821,,,82.6522,83.0859,,,,,,,,,,,,,,,,,,,,,,,83.0862,85.103,1,37,Pain au chocolat,4,0,compatible,Items_pictures/37_pain_chocolat.png,,none,,0,48,0,48,0,1,,,,
,,,052224,001,2026-03-27_13h08.25.880,AAT,2024.2.4,MacIntel,57.80346821,,,85.6199,86.3028,,,,,,,,,,,,,,,,,,,,,,,86.3031,88.3197,1,15,Flute,2,1,incompatible,Items_pictures/15_flute.png,,none,,0,49,0,49,0,1,,,,
,,,052224,001,2026-03-27_13h08.25.880,AAT,2024.2.4,MacIntel,57.80346821,,,88.8348,89.6196,,,,,,,,,,,,,,,,,,,,,,,89.62,91.6364,1,36,Pretzel,4,1,incompatible,Items_pictures/36_pretzel.png,,none,,0,50,0,50,0,1,,,,
,,,052224,001,2026-03-27_13h08.25.880,AAT,2024.2.4,MacIntel,57.80346821,,,92.1524,92.6527,,,,,,,,,,,,,,,,,,,,,,,92.6531,94.6695,1,13,Crisps,2,1,incompatible,Items_pictures/13_crisps.png,,none,,0,51,0,51,0,1,,,,
,,,052224,001,2026-03-27_13h08.25.880,AAT,2024.2.4,MacIntel,57.80346821,,,95.1863,95.8361,,,,,,,,,,,,,,,,,,,,,,,95.8365,97.8529,1,15,Flute,2,1,incompatible,Items_pictures/15_flute.png,,none,,0,52,0,52,0,1,,,,
,,,052224,001,2026-03-27_13h08.25.880,AAT,2024.2.4,MacIntel,57.80346821,,,98.3697,99.1364,,,,,,,,,,,,,,,,,,,,,,,99.1367,101.1529,1,5,Bell pepper,1,1,incompatible,Items_pictures/5_bell_pepper.png,,none,,0,53,0,53,0,1,,,,
,,,052224,001,2026-03-27_13h08.25.880,AAT,2024.2.4,MacIntel,57.80346821,,,101.6693,102.0846,,,,,,,,,,,,,,,,,,,,,,,102.0847,104.0852,1,1,Apple slice,1,0,compatible,Items_pictures/1_apple.png,,none,,0,54,0,54,0,1,,,,
,,,052224,001,2026-03-27_13h08.25.880,AAT,2024.2.4,MacIntel,57.80346821,,,104.603,104.9351,,,,,,,,,,,,,,,,,,,,,,,104.9355,106.9523,1,22,Pizza (vegetarian),3,1,incompatible,Items_pictures/22_veg_pizza.png,,none,,0,55,0,55,0,1,,,,
,,,052224,001,2026-03-27_13h08.25.880,AAT,2024.2.4,MacIntel,57.80346821,,,107.4697,107.7696,,,,,,,,,,,,,,,,,,,,,,,107.7699,109.7856,1,55,Creme brulee,6,0,compatible,Items_pictures/55_creme_brulee.png,,none,,0,56,0,56,0,1,,,,
,,,052224,001,2026-03-27_13h08.25.880,AAT,2024.2.4,MacIntel,57.80346821,,,110.2864,110.8352,,,,,,,,,,,,,,,,,,,,,,,110.8354,112.8362,1,18,Popcorn,2,1,incompatible,Items_pictures/18_popcorn.png,,none,,0,57,0,57,0,1,,,,
,,,052224,001,2026-03-27_13h08.25.880,AAT,2024.2.4,MacIntel,57.80346821,,,113.3527,114.1027,,,,,,,,,,,,,,,,,,,,,,,114.103,116.1186,1,9,Healthy cracker (Darvida),1,1,incompatible,Items_pictures/9_healthy_cracker.png,,none,,0,58,0,58,0,1,,,,
,,,052224,001,2026-03-27_13h08.25.880,AAT,2024.2.4,MacIntel,57.80346821,,,116.6195,117.1694,,,,,,,,,,,,,,,,,,,,,,,117.1697,119.1863,1,15,Flute,2,1,incompatible,Items_pictures/15_flute.png,,none,,0,59,0,59,0,1,,,,
,,,052224,001,2026-03-27_13h08.25.880,AAT,2024.2.4,MacIntel,57.80346821,,,119.7028,120.1529,,,,,,,,,,,,,,,,,,,,,,,120.1532,122.1692,1,30,Onion rings,3,1,incompatible,Items_pictures/30_onion_rings.png,,none,,0,60,0,60,0,1,,,,
,,,052224,001,2026-03-27_13h08.25.880,AAT,2024.2.4,MacIntel,57.80346821,,,122.6852,123.1861,,,,,,,,,,,,,,,,,,,,,,,123.1865,125.2027,1,36,Pretzel,4,1,incompatible,Items_pictures/36_pretzel.png,,none,,0,61,0,61,0,1,,,,
,,,052224,001,2026-03-27_13h08.25.880,AAT,2024.2.4,MacIntel,57.80346821,,,125.7187,126.2862,,,,,,,,,,,,,,,,,,,,,,,126.2866,128.3018,1,56,Macarons,6,0,compatible,Items_pictures/56_macaron.png,,none,,0,62,0,62,0,1,,,,
,,,052224,001,2026-03-27_13h08.25.880,AAT,2024.2.4,MacIntel,57.80346821,,,128.803,129.3527,,,,,,,,,,,,,,,,,,,,,,,129.353,131.3691,1,44,Chocolate bar,5,0,compatible,Items_pictures/44_chocolate_snack.png,,none,,0,63,0,63,0,1,,,,
,,,052224,001,2026-03-27_13h08.25.880,AAT,2024.2.4,MacIntel,57.80346821,,,131.8857,132.6683,,,,,,,,,,,,,,,,,,,,,,,132.6687,134.6693,1,25,French fries,3,1,incompatible,Items_pictures/25_fries.png,,none,,0,64,0,64,0,1,,,,
,,,052224,001,2026-03-27_13h08.25.880,AAT,2024.2.4,MacIntel,57.80346821,,,135.1853,135.8693,,,,,,,,,,,,,,,,,,,,,,,135.8695,137.8861,1,20,Tortillas,2,1,incompatible,Items_pictures/20_tortillas.png,,none,,0,65,0,65,0,1,,,,
,,,052224,001,2026-03-27_13h08.25.880,AAT,2024.2.4,MacIntel,57.80346821,,,138.4029,138.9192,,,,,,,,,,,,,,,,,,,,,,,138.9195,140.9354,1,43,"Chocolate snacks (e.g. Kinder, Knoppers)",5,0,compatible,Items_pictures/43_chocolate_snack.png,,none,,0,66,0,66,0,1,,,,
,,,052224,001,2026-03-27_13h08.25.880,AAT,2024.2.4,MacIntel,57.80346821,,,141.4531,142.0517,,,,,,,,,,,,,,,,,,,,,,,142.052,144.0523,1,9,Healthy cracker (Darvida),1,1,incompatible,Items_pictures/9_healthy_cracker.png,,none,,0,67,0,67,0,1,,,,
,,,052224,001,2026-03-27_13h08.25.880,AAT,2024.2.4,MacIntel,57.80346821,,,144.5693,144.9849,,,,,,,,,,,,,,,,,,,,,,,144.9853,147.0024,1,18,Popcorn,2,1,incompatible,Items_pictures/18_popcorn.png,,none,,0,68,0,68,0,1,,,,
,,,052224,001,2026-03-27_13h08.25.880,AAT,2024.2.4,MacIntel,57.80346821,,,147.5191,148.0696,,,,,,,,,,,,,,,,,,,,,,,148.0703,150.0849,1,37,Pain au chocolat,4,0,compatible,Items_pictures/37_pain_chocolat.png,,none,,0,69,0,69,0,1,,,,
,,,052224,001,2026-03-27_13h08.25.880,AAT,2024.2.4,MacIntel,57.80346821,,,150.5862,151.1022,,,,,,,,,,,,,,,,,,,,,,,151.1026,153.1194,1,25,French fries,3,1,incompatible,Items_pictures/25_fries.png,,none,,0,70,0,70,0,1,,,,
,,,052224,001,2026-03-27_13h08.25.880,AAT,2024.2.4,MacIntel,57.80346821,,,153.6359,154.3358,,,,,,,,,,,,,,,,,,,,,,,154.3362,156.3526,1,6,Cut strawberry,1,0,compatible,Items_pictures/6_strawberries.png,,none,,0,71,0,71,0,1,,,,
,,,052224,001,2026-03-27_13h08.25.880,AAT,2024.2.4,MacIntel,57.80346821,,,156.8694,157.3858,,,,,,,,,,,,,,,,,,,,,,,157.3862,159.4027,1,42,"Chocolate snacks (e.g. Kinder, Knoppers)",5,0,compatible,Items_pictures/42_chocolate_snack.png,,none,,0,72,0,72,0,1,,,,
,,,052224,001,2026-03-27_13h08.25.880,AAT,2024.2.4,MacIntel,57.80346821,,,159.9195,160.6679,,,,,,,,,,,,,,,,,,,,,,,160.6681,162.6694,1,56,Macarons,6,0,compatible,Items_pictures/56_macaron.png,,none,,0,73,0,73,0,1,,,,
,,,052224,001,2026-03-27_13h08.25.880,AAT,2024.2.4,MacIntel,57.80346821,,,163.1862,163.5027,,,,,,,,,,,,,,,,,,,,,,,163.5031,165.5193,1,60,Cupcake,6,0,compatible,Items_pictures/60_cupcake.png,,none,,0,74,0,74,0,1,,,,
,,,052224,001,2026-03-27_13h08.25.880,AAT,2024.2.4,MacIntel,57.80346821,,,166.0359,166.5848,,,,,,,,,,,,,,,,,,,,,,,166.5851,168.5854,1,6,Cut strawberry,1,0,compatible,Items_pictures/6_strawberries.png,,none,,0,75,0,75,0,1,,,,
,,,052224,001,2026-03-27_13h08.25.880,AAT,2024.2.4,MacIntel,57.80346821,,,169.1015,169.7522,,,,,,,,,,,,,,,,,,,,,,,169.7525,171.7691,1,41,"Chocolate snacks (e.g. Kinder, Knoppers)",5,0,compatible,Items_pictures/41_chocolate_snack.png,,none,,0,76,0,76,0,1,,,,
,,,052224,001,2026-03-27_13h08.25.880,AAT,2024.2.4,MacIntel,57.80346821,,,172.2858,172.7857,,,,,,,,,,,,,,,,,,,,,,,172.7862,174.8024,1,22,Pizza (vegetarian),3,1,incompatible,Items_pictures/22_veg_pizza.png,,none,,0,77,0,77,0,1,,,,
,,,052224,001,2026-03-27_13h08.25.880,AAT,2024.2.4,MacIntel,57.80346821,,,175.3193,175.669,,,,,,,,,,,,,,,,,,,,,,,175.6698,177.6847,1,60,Cupcake,6,0,compatible,Items_pictures/60_cupcake.png,,none,,0,78,0,78,0,1,,,,
,,,052224,001,2026-03-27_13h08.25.880,AAT,2024.2.4,MacIntel,57.80346821,,,178.186,178.969,,,,,,,,,,,,,,,,,,,,,,,178.9697,180.9859,1,1,Apple slice,1,0,compatible,Items_pictures/1_apple.png,,none,,0,79,0,79,0,1,,,,
,,,052224,001,2026-03-27_13h08.25.880,AAT,2024.2.4,MacIntel,57.80346821,,,181.5016,182.0858,,,,,,,,,,,,,,,,,,,,,,,182.0865,184.1023,1,9,Healthy cracker (Darvida),1,1,incompatible,Items_pictures/9_healthy_cracker.png,,none,,0,80,0,80,0,1,,,,
,,,052224,001,2026-03-27_13h08.25.880,AAT,2024.2.4,MacIntel,57.80346821,,,184.6194,185.2691,,,,,,,,,,,,,,,,,,,,,,,185.2694,187.2857,1,9,Healthy cracker (Darvida),1,1,incompatible,Items_pictures/9_healthy_cracker.png,,none,,0,81,0,81,0,1,,,,
,,,052224,001,2026-03-27_13h08.25.880,AAT,2024.2.4,MacIntel,57.80346821,,,187.8015,188.3016,,,,,,,,,,,,,,,,,,,,,,,188.3021,190.3182,1,20,Tortillas,2,1,incompatible,Items_pictures/20_tortillas.png,,none,,0,82,0,82,0,1,,,,
,,,052224,001,2026-03-27_13h08.25.880,AAT,2024.2.4,MacIntel,57.80346821,,,190.819,191.1183,,,,,,,,,,,,,,,,,,,,,,,191.1187,193.1191,1,42,"Chocolate snacks (e.g. Kinder, Knoppers)",5,0,compatible,Items_pictures/42_chocolate_snack.png,,none,,0,83,0,83,0,1,,,,
,,,052224,001,2026-03-27_13h08.25.880,AAT,2024.2.4,MacIntel,57.80346821,,,193.6358,194.369,,,,,,,,,,,,,,,,,,,,,,,194.3694,196.3858,1,25,French fries,3,1,incompatible,Items_pictures/25_fries.png,,none,,0,84,0,84,0,1,,,,
,,,052224,001,2026-03-27_13h08.25.880,AAT,2024.2.4,MacIntel,57.80346821,,,196.9026,197.3178,,,,,,,,,,,,,,,,,,,,,,,197.3181,197.8853,1,30,Onion rings,3,1,incompatible,Items_pictures/30_onion_rings.png,0.1835,approach,1.204246863,1,85,0,85,0,1,,,,
,,,052224,001,2026-03-27_13h08.25.880,AAT,2024.2.4,MacIntel,57.80346821,,,198.4021,199.0351,,,,,,,,,,,,,,,,,,,,,,,199.0355,199.5518,1,6,Cut strawberry,1,0,compatible,Items_pictures/6_strawberries.png,0.1832,approach,1.021977695,1,86,0,86,0,1,,,,
,,,052224,001,2026-03-27_13h08.25.880,AAT,2024.2.4,MacIntel,57.80346821,,,199.8522,200.4517,,,,,,,,,,,,,,,,,,,,,,,200.452,201.2353,1,22,Pizza (vegetarian),3,1,incompatible,Items_pictures/22_veg_pizza.png,0.3168,avoid,0.516884485,1,87,0,87,0,1,,,,
,,,052224,001,2026-03-27_13h08.25.880,AAT,2024.2.4,MacIntel,57.80346821,,,201.5524,201.9174,,,,,,,,,,,,,,,,,,,,,,,201.9178,202.8519,1,60,Cupcake,6,0,compatible,Items_pictures/60_cupcake.png,0.3671,approach,0.431909401,1,88,0,88,0,1,,,,
,,,052224,001,2026-03-27_13h08.25.880,AAT,2024.2.4,MacIntel,57.80346821,,,203.1692,203.8179,,,,,,,,,,,,,,,,,,,,,,,203.8183,204.6186,1,41,"Chocolate snacks (e.g. Kinder, Knoppers)",5,0,compatible,Items_pictures/41_chocolate_snack.png,0.2336,approach,0.772511976,1,89,0,89,0,1,,,,
,,,052224,001,2026-03-27_13h08.25.880,AAT,2024.2.4,MacIntel,57.80346821,,,204.9194,205.3683,,,,,,,,,,,,,,,,,,,,,,,205.3687,206.0853,1,34,Donuts,4,0,compatible,Items_pictures/34_donuts.png,0.2,approach,1.35243332,1,90,0,90,0,1,,,,
,,,052224,001,2026-03-27_13h08.25.880,AAT,2024.2.4,MacIntel,57.80346821,,,206.4016,206.7684,,,,,,,,,,,,,,,,,,,,,,,206.7686,207.3684,1,30,Onion rings,3,1,incompatible,Items_pictures/30_onion_rings.png,0.2,approach,1.02517914,1,91,0,91,0,1,,,,
,,,052224,001,2026-03-27_13h08.25.880,AAT,2024.2.4,MacIntel,57.80346821,,,207.8851,208.4517,,,,,,,,,,,,,,,,,,,,,,,208.4519,209.1185,1,5,Bell pepper,1,1,incompatible,Items_pictures/5_bell_pepper.png,0.2001,approach,0.931535626,1,92,0,92,0,1,,,,
,,,052224,001,2026-03-27_13h08.25.880,AAT,2024.2.4,MacIntel,57.80346821,,,209.6191,210.1018,,,,,,,,,,,,,,,,,,,,,,,210.1021,212.119,1,25,French fries,3,1,incompatible,Items_pictures/25_fries.png,,none,,0,93,0,93,0,1,,,,
,,,052224,001,2026-03-27_13h08.25.880,AAT,2024.2.4,MacIntel,57.80346821,,,212.6359,213.0855,,,,,,,,,,,,,,,,,,,,,,,213.0858,215.1021,1,44,Chocolate bar,5,0,compatible,Items_pictures/44_chocolate_snack.png,,none,,0,94,0,94,0,1,,,,
,,,052224,001,2026-03-27_13h08.25.880,AAT,2024.2.4,MacIntel,57.80346821,,,215.6191,216.1188,,,,,,,,,,,,,,,,,,,,,,,216.1194,218.1354,1,39,Muffin,4,0,compatible,Items_pictures/39_muffin.png,,none,,0,95,0,95,0,1,,,,
,,,052224,001,2026-03-27_13h08.25.880,AAT,2024.2.4,MacIntel,57.80346821,,,218.6522,219.0513,,,,,,,,,,,,,,,,,,,,,,,219.0518,221.068,1,55,Creme brulee,6,0,compatible,Items_pictures/55_creme_brulee.png,,none,,0,96,0,96,0,1,,,,
,,,052224,001,2026-03-27_13h08.25.880,AAT,2024.2.4,MacIntel,57.80346821,,,221.5849,222.2013,,,,,,,,,,,,,,,,,,,,,,,222.2018,224.2023,1,15,Flute,2,1,incompatible,Items_pictures/15_flute.png,,none,,0,97,0,97,0,1,,,,
,,,052224,001,2026-03-27_13h08.25.880,AAT,2024.2.4,MacIntel,57.80346821,,,224.719,225.1014,,,,,,,,,,,,,,,,,,,,,,,225.1016,227.1022,1,44,Chocolate bar,5,0,compatible,Items_pictures/44_chocolate_snack.png,,none,,0,98,0,98,0,1,,,,
,,,052224,001,2026-03-27_13h08.25.880,AAT,2024.2.4,MacIntel,57.80346821,,,227.6185,228.2529,,,,,,,,,,,,,,,,,,,,,,,228.2542,230.2689,1,44,Chocolate bar,5,0,compatible,Items_pictures/44_chocolate_snack.png,,none,,0,99,0,99,0,1,,,,
,,,052224,001,2026-03-27_13h08.25.880,AAT,2024.2.4,MacIntel,57.80346821,,,230.7856,231.4679,,,,,,,,,,,,,,,,,,,,,,,231.4684,233.4687,1,34,Donuts,4,0,compatible,Items_pictures/34_donuts.png,,none,,0,100,0,100,0,1,,,,
,,,052224,001,2026-03-27_13h08.25.880,AAT,2024.2.4,MacIntel,57.80346821,,,233.9851,234.602,,,,,,,,,,,,,,,,,,,,,,,234.6025,236.6189,1,28,Burger (vegetarian),3,1,incompatible,Items_pictures/28_veg_burger.png,,none,,0,101,0,101,0,1,,,,
,,,052224,001,2026-03-27_13h08.25.880,AAT,2024.2.4,MacIntel,57.80346821,,,237.1357,237.8176,,,,,,,,,,,,,,,,,,,,,,,237.8178,239.8344,1,37,Pain au chocolat,4,0,compatible,Items_pictures/37_pain_chocolat.png,,none,,0,102,0,102,0,1,,,,
,,,052224,001,2026-03-27_13h08.25.880,AAT,2024.2.4,MacIntel,57.80346821,,,240.352,240.9847,,,,,,,,,,,,,,,,,,,,,,,240.985,243.0019,1,42,"Chocolate snacks (e.g. Kinder, Knoppers)",5,0,compatible,Items_pictures/42_chocolate_snack.png,,none,,0,103,0,103,0,1,,,,
,,,052224,001,2026-03-27_13h08.25.880,AAT,2024.2.4,MacIntel,57.80346821,,,243.5189,243.8851,,,,,,,,,,,,,,,,,,,,,,,243.8855,245.9021,1,30,Onion rings,3,1,incompatible,Items_pictures/30_onion_rings.png,,none,,0,104,0,104,0,1,,,,
,,,052224,001,2026-03-27_13h08.25.880,AAT,2024.2.4,MacIntel,57.80346821,,,246.4187,247.1686,,,,,,,,,,,,,,,,,,,,,,,247.1689,249.1854,1,39,Muffin,4,0,compatible,Items_pictures/39_muffin.png,,none,,0,105,0,105,0,1,,,,
,,,052224,001,2026-03-27_13h08.25.880,AAT,2024.2.4,MacIntel,57.80346821,,,249.7022,250.2354,,,,,,,,,,,,,,,,,,,,,,,250.2358,252.2511,1,53,Ice cream cup,6,0,compatible,Items_pictures/53_ice_cream.png,,none,,0,106,0,106,0,1,,,,
,,,052224,001,2026-03-27_13h08.25.880,AAT,2024.2.4,MacIntel,57.80346821,,,252.7522,253.402,,,,,,,,,,,,,,,,,,,,,,,253.4025,255.4188,1,18,Popcorn,2,1,incompatible,Items_pictures/18_popcorn.png,,none,,0,107,0,107,0,1,,,,
,,,052224,001,2026-03-27_13h08.25.880,AAT,2024.2.4,MacIntel,57.80346821,,,255.9356,256.4021,,,,,,,,,,,,,,,,,,,,,,,256.4024,258.4188,1,41,"Chocolate snacks (e.g. Kinder, Knoppers)",5,0,compatible,Items_pictures/41_chocolate_snack.png,,none,,0,108,0,108,0,1,,,,
,,,052224,001,2026-03-27_13h08.25.880,AAT,2024.2.4,MacIntel,57.80346821,,,258.9355,259.251,,,,,,,,,,,,,,,,,,,,,,,259.2513,261.2678,1,34,Donuts,4,0,compatible,Items_pictures/34_donuts.png,,none,,0,109,0,109,0,1,,,,
,,,052224,001,2026-03-27_13h08.25.880,AAT,2024.2.4,MacIntel,57.80346821,,,261.769,262.5019,,,,,,,,,,,,,,,,,,,,,,,262.5023,264.5182,1,13,Crisps,2,1,incompatible,Items_pictures/13_crisps.png,,none,,0,110,0,110,0,1,,,,
,,,052224,001,2026-03-27_13h08.25.880,AAT,2024.2.4,MacIntel,57.80346821,,,265.0347,265.5188,,,,,,,,,,,,,,,,,,,,,,,265.5191,267.5355,1,28,Burger (vegetarian),3,1,incompatible,Items_pictures/28_veg_burger.png,,none,,0,111,0,111,0,1,,,,
,,,052224,001,2026-03-27_13h08.25.880,AAT,2024.2.4,MacIntel,57.80346821,,,268.0514,268.6017,,,,,,,,,,,,,,,,,,,,,,,268.602,269.185,1,37,Pain au chocolat,4,0,compatible,Items_pictures/37_pain_chocolat.png,0.217,approach,0.745041313,1,112,0,112,0,1,,,,
,,,052224,001,2026-03-27_13h08.25.880,AAT,2024.2.4,MacIntel,57.80346821,,,269.5018,270.0684,,,,,,,,,,,,,,,,,,,,,,,270.069,270.7849,1,22,Pizza (vegetarian),3,1,incompatible,Items_pictures/22_veg_pizza.png,0.2002,avoid,1.09342787,1,113,0,113,0,1,,,,
,,,052224,001,2026-03-27_13h08.25.880,AAT,2024.2.4,MacIntel,57.80346821,,,271.102,271.5015,,,,,,,,,,,,,,,,,,,,,,,271.5016,272.0849,1,13,Crisps,2,1,incompatible,Items_pictures/13_crisps.png,0.2006,avoid,0.782708601,1,114,0,114,0,1,,,,
,,,052224,001,2026-03-27_13h08.25.880,AAT,2024.2.4,MacIntel,57.80346821,,,272.4011,273.1842,,,,,,,,,,,,,,,,,,,,,,,273.1845,273.8855,1,53,Ice cream cup,6,0,compatible,Items_pictures/53_ice_cream.png,0.2848,approach,0.724384611,1,115,0,115,0,1,,,,
,,,052224,001,2026-03-27_13h08.25.880,AAT,2024.2.4,MacIntel,57.80346821,,,274.2007,274.7182,,,,,,,,,,,,,,,,,,,,,,,274.7185,275.3349,1,55,Creme brulee,6,0,compatible,Items_pictures/55_creme_brulee.png,0.2331,approach,0.78189683,1,116,0,116,0,1,,,,
,,,052224,001,2026-03-27_13h08.25.880,AAT,2024.2.4,MacIntel,57.80346821,,,275.651,276.4348,,,,,,,,,,,,,,,,,,,,,,,276.4352,277.0347,1,43,"Chocolate snacks (e.g. Kinder, Knoppers)",5,0,compatible,Items_pictures/43_chocolate_snack.png,0.2507,approach,0.634489354,1,117,0,117,0,1,,,,
,,,052224,001,2026-03-27_13h08.25.880,AAT,2024.2.4,MacIntel,57.80346821,,,277.3357,277.6839,,,,,,,,,,,,,,,,,,,,,,,277.684,278.2683,1,41,"Chocolate snacks (e.g. Kinder, Knoppers)",5,0,compatible,Items_pictures/41_chocolate_snack.png,0.2003,approach,0.843554533,1,118,0,118,0,1,,,,
,,,052224,001,2026-03-27_13h08.25.880,AAT,2024.2.4,MacIntel,57.80346821,,,278.5854,279.1847,,,,,,,,,,,,,,,,,,,,,,,279.185,279.9348,1,28,Burger (vegetarian),3,1,incompatible,Items_pictures/28_veg_burger.png,0.2005,avoid,0.777986364,1,119,0,119,0,1,,,,
,,,052224,001,2026-03-27_13h08.25.880,AAT,2024.2.4,MacIntel,57.80346821,,,359.5039,360.1345,,,,,,,,,,,,,,,,,,,,,281.7024,358.8019,360.1361,361.001,2,9,Healthy cracker (Darvida),1,1,compatible,Items_pictures/9_healthy_cracker.png,0.1835,approach,0.882548508,1,0,0,0,0,1,280.2528,281.7019,,
,,,052224,001,2026-03-27_13h08.25.880,AAT,2024.2.4,MacIntel,57.80346821,,,361.3021,362.1016,,,,,,,,,,,,,,,,,,,,,,,362.102,362.7678,2,6,Cut strawberry,1,0,incompatible,Items_pictures/6_strawberries.png,0.1835,avoid,1.378288846,1,1,0,1,0,1,,,,
,,,052224,001,2026-03-27_13h08.25.880,AAT,2024.2.4,MacIntel,57.80346821,,,363.0685,363.4009,,,,,,,,,,,,,,,,,,,,,,,363.4012,364.0167,2,13,Crisps,2,1,compatible,Items_pictures/13_crisps.png,0.1322,avoid,1.393086257,1,2,0,2,0,1,,,,
,,,052224,001,2026-03-27_13h08.25.880,AAT,2024.2.4,MacIntel,57.80346821,,,364.5176,364.851,,,,,,,,,,,,,,,,,,,,,,,364.8511,365.5018,2,43,"Chocolate snacks (e.g. Kinder, Knoppers)",5,0,incompatible,Items_pictures/43_chocolate_snack.png,0.2839,avoid,0.578168784,1,3,0,3,0,1,,,,
,,,052224,001,2026-03-27_13h08.25.880,AAT,2024.2.4,MacIntel,57.80346821,,,365.8179,366.5178,,,,,,,,,,,,,,,,,,,,,,,366.5185,367.0843,2,60,Cupcake,6,0,incompatible,Items_pictures/60_cupcake.png,0.1499,avoid,1.040137428,1,4,0,4,0,1,,,,
,,,052224,001,2026-03-27_13h08.25.880,AAT,2024.2.4,MacIntel,57.80346821,,,367.4013,367.9343,,,,,,,,,,,,,,,,,,,,,,,367.9345,368.7174,2,37,Pain au chocolat,4,0,incompatible,Items_pictures/37_pain_chocolat.png,0.3008,avoid,1.153340297,1,5,0,5,0,1,,,,
,,,052224,001,2026-03-27_13h08.25.880,AAT,2024.2.4,MacIntel,57.80346821,,,369.0178,369.7509,,,,,,,,,,,,,,,,,,,,,,,369.7512,370.4679,2,41,"Chocolate snacks (e.g. Kinder, Knoppers)",5,0,incompatible,Items_pictures/41_chocolate_snack.png,0.1505,avoid,2.142440538,1,6,0,6,0,1,,,,
,,,052224,001,2026-03-27_13h08.25.880,AAT,2024.2.4,MacIntel,57.80346821,,,370.7844,371.101,,,,,,,,,,,,,,,,,,,,,,,371.1013,371.6345,2,55,Creme brulee,6,0,incompatible,Items_pictures/55_creme_brulee.png,0.1335,avoid,3.977499761,1,7,0,7,0,1,,,,
,,,052224,001,2026-03-27_13h08.25.880,AAT,2024.2.4,MacIntel,57.80346821,,,371.9507,372.4166,,,,,,,,,,,,,,,,,,,,,,,372.4169,372.9847,2,36,Pretzel,4,1,compatible,Items_pictures/36_pretzel.png,0.0835,approach,2.379357527,1,8,0,8,0,1,,,,
,,,052224,001,2026-03-27_13h08.25.880,AAT,2024.2.4,MacIntel,57.80346821,,,373.3011,373.7175,,,,,,,,,,,,,,,,,,,,,,,373.7176,374.2332,2,34,Donuts,4,0,incompatible,Items_pictures/34_donuts.png,0.149,approach,1.147411886,1,9,0,9,0,1,,,,
,,,052224,001,2026-03-27_13h08.25.880,AAT,2024.2.4,MacIntel,57.80346821,,,374.7341,375.5011,,,,,,,,,,,,,,,,,,,,,,,375.5014,376.1512,2,41,"Chocolate snacks (e.g. Kinder, Knoppers)",5,0,incompatible,Items_pictures/41_chocolate_snack.png,0.1666,avoid,1.762966332,1,10,0,10,0,1,,,,
,,,052224,001,2026-03-27_13h08.25.880,AAT,2024.2.4,MacIntel,57.80346821,,,376.4683,377.1834,,,,,,,,,,,,,,,,,,,,,,,377.1837,378.2333,2,5,Bell pepper,1,1,compatible,Items_pictures/5_bell_pepper.png,0.1657,approach,0.90723249,1,11,0,11,0,1,,,,
,,,052224,001,2026-03-27_13h08.25.880,AAT,2024.2.4,MacIntel,57.80346821,,,378.5344,379.2346,,,,,,,,,,,,,,,,,,,,,,,379.235,379.9667,2,9,Healthy cracker (Darvida),1,1,compatible,Items_pictures/9_healthy_cracker.png,0.199,approach,0.788401602,1,12,0,12,0,1,,,,
,,,052224,001,2026-03-27_13h08.25.880,AAT,2024.2.4,MacIntel,57.80346821,,,380.2678,380.7009,,,,,,,,,,,,,,,,,,,,,,,380.701,381.2177,2,20,Tortillas,2,1,compatible,Items_pictures/20_tortillas.png,0.1666,approach,1.070342548,1,13,0,13,0,1,,,,
,,,052224,001,2026-03-27_13h08.25.880,AAT,2024.2.4,MacIntel,57.80346821,,,381.534,382.2675,,,,,,,,,,,,,,,,,,,,,,,382.268,382.8674,2,42,"Chocolate snacks (e.g. Kinder, Knoppers)",5,0,incompatible,Items_pictures/42_chocolate_snack.png,0.2508,avoid,0.642827506,1,14,0,14,0,1,,,,
,,,052224,001,2026-03-27_13h08.25.880,AAT,2024.2.4,MacIntel,57.80346821,,,383.168,383.8839,,,,,,,,,,,,,,,,,,,,,,,383.8845,384.6675,2,36,Pretzel,4,1,compatible,Items_pictures/36_pretzel.png,0.2998,approach,0.558592937,1,15,0,15,0,1,,,,
,,,052224,001,2026-03-27_13h08.25.880,AAT,2024.2.4,MacIntel,57.80346821,,,384.9679,385.5512,,,,,,,,,,,,,,,,,,,,,,,385.5516,386.0176,2,36,Pretzel,4,1,compatible,Items_pictures/36_pretzel.png,0.1835,approach,0.916581336,1,16,0,16,0,1,,,,
,,,052224,001,2026-03-27_13h08.25.880,AAT,2024.2.4,MacIntel,57.80346821,,,386.3347,386.9165,,,,,,,,,,,,,,,,,,,,,,,386.9168,387.3673,2,6,Cut strawberry,1,0,incompatible,Items_pictures/6_strawberries.png,0.1498,approach,1.042160514,1,17,0,17,0,1,,,,
,,,052224,001,2026-03-27_13h08.25.880,AAT,2024.2.4,MacIntel,57.80346821,,,387.8678,388.1665,,,,,,,,,,,,,,,,,,,,,,,388.1668,388.6509,2,15,Flute,2,1,compatible,Items_pictures/15_flute.png,0.1667,approach,1.096745221,1,18,0,18,0,1,,,,
,,,052224,001,2026-03-27_13h08.25.880,AAT,2024.2.4,MacIntel,57.80346821,,,388.9514,389.3174,,,,,,,,,,,,,,,,,,,,,,,389.3177,390.1673,2,9,Healthy cracker (Darvida),1,1,compatible,Items_pictures/9_healthy_cracker.png,0.3499,approach,0.639954796,1,19,0,19,0,1,,,,
,,,052224,001,2026-03-27_13h08.25.880,AAT,2024.2.4,MacIntel,57.80346821,,,390.4844,391.0341,,,,,,,,,,,,,,,,,,,,,,,391.0343,392.2349,2,53,Ice cream cup,6,0,incompatible,Items_pictures/53_ice_cream.png,0.1842,avoid,1.3025696,1,20,0,20,0,1,,,,
,,,052224,001,2026-03-27_13h08.25.880,AAT,2024.2.4,MacIntel,57.80346821,,,392.5506,392.934,,,,,,,,,,,,,,,,,,,,,,,392.9341,393.584,2,37,Pain au chocolat,4,0,incompatible,Items_pictures/37_pain_chocolat.png,0.1661,avoid,1.239924342,1,21,0,21,0,1,,,,
,,,052224,001,2026-03-27_13h08.25.880,AAT,2024.2.4,MacIntel,57.80346821,,,393.9004,394.5333,,,,,,,,,,,,,,,,,,,,,,,394.5336,395.0506,2,1,Apple slice,1,0,incompatible,Items_pictures/1_apple.png,0.1332,avoid,1.566766308,1,22,0,22,0,1,,,,
,,,052224,001,2026-03-27_13h08.25.880,AAT,2024.2.4,MacIntel,57.80346821,,,395.3679,396.0166,,,,,,,,,,,,,,,,,,,,,,,396.0168,396.7674,2,55,Creme brulee,6,0,incompatible,Items_pictures/55_creme_brulee.png,0.1334,avoid,1.536030354,1,23,0,23,0,1,,,,
,,,052224,001,2026-03-27_13h08.25.880,AAT,2024.2.4,MacIntel,57.80346821,,,397.068,397.7837,,,,,,,,,,,,,,,,,,,,,,,397.784,398.3836,2,22,Pizza (vegetarian),3,1,compatible,Items_pictures/22_veg_pizza.png,0.1493,approach,1.285957343,1,24,0,24,0,1,,,,
,,,052224,001,2026-03-27_13h08.25.880,AAT,2024.2.4,MacIntel,57.80346821,,,398.7009,399.0006,,,,,,,,,,,,,,,,,,,,,,,399.001,399.4349,2,36,Pretzel,4,1,compatible,Items_pictures/36_pretzel.png,0.1338,approach,1.356679268,1,25,0,25,0,1,,,,
,,,052224,001,2026-03-27_13h08.25.880,AAT,2024.2.4,MacIntel,57.80346821,,,399.7507,400.1347,,,,,,,,,,,,,,,,,,,,,,,400.1351,400.5838,2,42,"Chocolate snacks (e.g. Kinder, Knoppers)",5,0,incompatible,Items_pictures/42_chocolate_snack.png,0.1504,approach,1.010938719,1,26,0,26,0,1,,,,
,,,052224,001,2026-03-27_13h08.25.880,AAT,2024.2.4,MacIntel,57.80346821,,,401.0843,401.4674,,,,,,,,,,,,,,,,,,,,,,,401.4677,401.9007,2,60,Cupcake,6,0,incompatible,Items_pictures/60_cupcake.png,0.1501,approach,1.188333309,1,27,0,27,0,1,,,,
,,,052224,001,2026-03-27_13h08.25.880,AAT,2024.2.4,MacIntel,57.80346821,,,402.4175,402.8511,,,,,,,,,,,,,,,,,,,,,,,402.8515,403.2683,2,39,Muffin,4,0,incompatible,Items_pictures/39_muffin.png,0.1338,approach,1.136361606,1,28,0,28,0,1,,,,
,,,052224,001,2026-03-27_13h08.25.880,AAT,2024.2.4,MacIntel,57.80346821,,,403.7841,404.4669,,,,,,,,,,,,,,,,,,,,,,,404.4672,405.4175,2,41,"Chocolate snacks (e.g. Kinder, Knoppers)",5,0,incompatible,Items_pictures/41_chocolate_snack.png,0.6506,approach,0.285304378,1,29,0,29,0,1,,,,
,,,052224,001,2026-03-27_13h08.25.880,AAT,2024.2.4,MacIntel,57.80346821,,,405.918,406.6006,,,,,,,,,,,,,,,,,,,,,,,406.6008,407.4346,2,18,Popcorn,2,1,compatible,Items_pictures/18_popcorn.png,0.2004,avoid,1.518261249,1,30,0,30,0,1,,,,
,,,052224,001,2026-03-27_13h08.25.880,AAT,2024.2.4,MacIntel,57.80346821,,,407.9507,408.5508,,,,,,,,,,,,,,,,,,,,,,,408.551,409.2836,2,20,Tortillas,2,1,compatible,Items_pictures/20_tortillas.png,0.2159,approach,0.74141573,1,31,0,31,0,1,,,,
,,,052224,001,2026-03-27_13h08.25.880,AAT,2024.2.4,MacIntel,57.80346821,,,409.5847,410.3678,,,,,,,,,,,,,,,,,,,,,,,410.3682,411.1008,2,44,Chocolate bar,5,0,incompatible,Items_pictures/44_chocolate_snack.png,0.1999,avoid,0.870558688,1,32,0,32,0,1,,,,
,,,052224,001,2026-03-27_13h08.25.880,AAT,2024.2.4,MacIntel,57.80346821,,,411.4182,411.7339,,,,,,,,,,,,,,,,,,,,,,,411.7341,412.5344,2,15,Flute,2,1,compatible,Items_pictures/15_flute.png,0.1667,approach,1.349013638,1,33,0,33,0,1,,,,
,,,052224,001,2026-03-27_13h08.25.880,AAT,2024.2.4,MacIntel,57.80346821,,,412.8509,413.2009,,,,,,,,,,,,,,,,,,,,,,,413.2013,413.7349,2,30,Onion rings,3,1,compatible,Items_pictures/30_onion_rings.png,0.1514,approach,1.503779217,1,34,0,34,0,1,,,,
,,,052224,001,2026-03-27_13h08.25.880,AAT,2024.2.4,MacIntel,57.80346821,,,414.0509,414.8006,,,,,,,,,,,,,,,,,,,,,,,414.8007,415.4007,2,30,Onion rings,3,1,compatible,Items_pictures/30_onion_rings.png,0.1998,approach,0.772692478,1,35,0,35,0,1,,,,
,,,052224,001,2026-03-27_13h08.25.880,AAT,2024.2.4,MacIntel,57.80346821,,,415.7011,416.4841,,,,,,,,,,,,,,,,,,,,,,,416.4845,417.4342,2,37,Pain au chocolat,4,0,incompatible,Items_pictures/37_pain_chocolat.png,0.6008,approach,0.320656256,1,36,0,36,0,1,,,,
,,,052224,001,2026-03-27_13h08.25.880,AAT,2024.2.4,MacIntel,57.80346821,,,417.9507,418.6335,,,,,,,,,,,,,,,,,,,,,,,418.6339,419.1008,2,6,Cut strawberry,1,0,incompatible,Items_pictures/6_strawberries.png,0.1508,approach,1.28801514,1,37,0,37,0,1,,,,
,,,052224,001,2026-03-27_13h08.25.880,AAT,2024.2.4,MacIntel,57.80346821,,,419.6173,420.051,,,,,,,,,,,,,,,,,,,,,,,420.0514,420.5334,2,9,Healthy cracker (Darvida),1,1,compatible,Items_pictures/9_healthy_cracker.png,0.1825,approach,0.978781302,1,38,0,38,0,1,,,,
,,,052224,001,2026-03-27_13h08.25.880,AAT,2024.2.4,MacIntel,57.80346821,,,420.8337,421.6005,,,,,,,,,,,,,,,,,,,,,,,421.6008,422.1,2,28,Burger (vegetarian),3,1,compatible,Items_pictures/28_veg_burger.png,0.1501,approach,1.126471684,1,39,0,39,0,1,,,,
,,,052224,001,2026-03-27_13h08.25.880,AAT,2024.2.4,MacIntel,57.80346821,,,422.4174,422.7505,,,,,,,,,,,,,,,,,,,,,,,422.7508,423.2007,2,44,Chocolate bar,5,0,incompatible,Items_pictures/44_chocolate_snack.png,0.1501,approach,1.139732483,1,40,0,40,0,1,,,,
,,,052224,001,2026-03-27_13h08.25.880,AAT,2024.2.4,MacIntel,57.80346821,,,423.7173,424.1176,,,,,,,,,,,,,,,,,,,,,,,424.1179,424.5508,2,30,Onion rings,3,1,compatible,Items_pictures/30_onion_rings.png,0.1499,approach,1.428533302,1,41,0,41,0,1,,,,
,,,052224,001,2026-03-27_13h08.25.880,AAT,2024.2.4,MacIntel,57.80346821,,,424.8678,425.2674,,,,,,,,,,,,,,,,,,,,,,,425.2676,425.6836,2,44,Chocolate bar,5,0,incompatible,Items_pictures/44_chocolate_snack.png,0.1504,approach,1.174482166,1,42,0,42,0,1,,,,
,,,052224,001,2026-03-27_13h08.25.880,AAT,2024.2.4,MacIntel,57.80346821,,,426.1841,426.9343,,,,,,,,,,,,,,,,,,,,,,,426.9348,427.5008,2,13,Crisps,2,1,compatible,Items_pictures/13_crisps.png,0.5658,approach,0.322189792,1,43,0,43,0,1,,,,
,,,052224,001,2026-03-27_13h08.25.880,AAT,2024.2.4,MacIntel,57.80346821,,,427.8176,428.2678,,,,,,,,,,,,,,,,,,,,,,,428.2681,430.2845,2,39,Muffin,4,0,incompatible,Items_pictures/39_muffin.png,,none,,0,44,0,44,0,1,,,,
,,,052224,001,2026-03-27_13h08.25.880,AAT,2024.2.4,MacIntel,57.80346821,,,430.8005,431.3177,,,,,,,,,,,,,,,,,,,,,,,431.318,433.3344,2,55,Creme brulee,6,0,incompatible,Items_pictures/55_creme_brulee.png,,none,,0,45,0,45,0,1,,,,
,,,052224,001,2026-03-27_13h08.25.880,AAT,2024.2.4,MacIntel,57.80346821,,,433.8512,434.1502,,,,,,,,,,,,,,,,,,,,,,,434.1506,436.1678,2,22,Pizza (vegetarian),3,1,compatible,Items_pictures/22_veg_pizza.png,,none,,0,46,0,46,0,1,,,,
,,,052224,001,2026-03-27_13h08.25.880,AAT,2024.2.4,MacIntel,57.80346821,,,436.6843,437.1845,,,,,,,,,,,,,,,,,,,,,,,437.1848,439.2012,2,37,Pain au chocolat,4,0,incompatible,Items_pictures/37_pain_chocolat.png,,none,,0,47,0,47,0,1,,,,
,,,052224,001,2026-03-27_13h08.25.880,AAT,2024.2.4,MacIntel,57.80346821,,,439.7169,440.1171,,,,,,,,,,,,,,,,,,,,,,,440.1176,442.1346,2,9,Healthy cracker (Darvida),1,1,compatible,Items_pictures/9_healthy_cracker.png,,none,,0,48,0,48,0,1,,,,
,,,052224,001,2026-03-27_13h08.25.880,AAT,2024.2.4,MacIntel,57.80346821,,,442.6505,443.3501,,,,,,,,,,,,,,,,,,,,,,,443.3514,445.3679,2,1,Apple slice,1,0,incompatible,Items_pictures/1_apple.png,,none,,0,49,0,49,0,1,,,,
,,,052224,001,2026-03-27_13h08.25.880,AAT,2024.2.4,MacIntel,57.80346821,,,445.8839,446.3507,,,,,,,,,,,,,,,,,,,,,,,446.3511,448.3677,2,60,Cupcake,6,0,incompatible,Items_pictures/60_cupcake.png,,none,,0,50,0,50,0,1,,,,
,,,052224,001,2026-03-27_13h08.25.880,AAT,2024.2.4,MacIntel,57.80346821,,,448.886,449.4329,,,,,,,,,,,,,,,,,,,,,,,449.4343,451.4344,2,55,Creme brulee,6,0,incompatible,Items_pictures/55_creme_brulee.png,,none,,0,51,0,51,0,1,,,,
,,,052224,001,2026-03-27_13h08.25.880,AAT,2024.2.4,MacIntel,57.80346821,,,451.9511,452.3174,,,,,,,,,,,,,,,,,,,,,,,452.3178,454.318,2,39,Muffin,4,0,incompatible,Items_pictures/39_muffin.png,,none,,0,52,0,52,0,1,,,,
,,,052224,001,2026-03-27_13h08.25.880,AAT,2024.2.4,MacIntel,57.80346821,,,454.8346,455.2178,,,,,,,,,,,,,,,,,,,,,,,455.2181,457.2343,2,34,Donuts,4,0,incompatible,Items_pictures/34_donuts.png,,none,,0,53,0,53,0,1,,,,
,,,052224,001,2026-03-27_13h08.25.880,AAT,2024.2.4,MacIntel,57.80346821,,,457.7511,458.201,,,,,,,,,,,,,,,,,,,,,,,458.2014,460.2169,2,41,"Chocolate snacks (e.g. Kinder, Knoppers)",5,0,incompatible,Items_pictures/41_chocolate_snack.png,,none,,0,54,0,54,0,1,,,,
,,,052224,001,2026-03-27_13h08.25.880,AAT,2024.2.4,MacIntel,57.80346821,,,460.7178,461.0678,,,,,,,,,,,,,,,,,,,,,,,461.0681,463.0837,2,43,"Chocolate snacks (e.g. Kinder, Knoppers)",5,0,incompatible,Items_pictures/43_chocolate_snack.png,,none,,0,55,0,55,0,1,,,,
,,,052224,001,2026-03-27_13h08.25.880,AAT,2024.2.4,MacIntel,57.80346821,,,463.5841,464.234,,,,,,,,,,,,,,,,,,,,,,,464.2344,464.8008,2,28,Burger (vegetarian),3,1,compatible,Items_pictures/28_veg_burger.png,0.1506,approach,1.324750098,1,56,0,56,0,1,,,,
,,,052224,001,2026-03-27_13h08.25.880,AAT,2024.2.4,MacIntel,57.80346821,,,465.1177,465.5676,,,,,,,,,,,,,,,,,,,,,,,465.5681,466.6339,2,13,Crisps,2,1,compatible,Items_pictures/13_crisps.png,0.1667,approach,0.926536429,1,57,0,57,0,1,,,,
,,,052224,001,2026-03-27_13h08.25.880,AAT,2024.2.4,MacIntel,57.80346821,,,466.9345,467.4343,,,,,,,,,,,,,,,,,,,,,,,467.4346,468.2008,2,53,Ice cream cup,6,0,incompatible,Items_pictures/53_ice_cream.png,0.1332,avoid,1.302456915,1,58,0,58,0,1,,,,
,,,052224,001,2026-03-27_13h08.25.880,AAT,2024.2.4,MacIntel,57.80346821,,,468.5176,468.9337,,,,,,,,,,,,,,,,,,,,,,,468.9339,469.6671,2,18,Popcorn,2,1,compatible,Items_pictures/18_popcorn.png,0.1342,approach,1.283073734,1,59,0,59,0,1,,,,
,,,052224,001,2026-03-27_13h08.25.880,AAT,2024.2.4,MacIntel,57.80346821,,,469.9845,470.651,,,,,,,,,,,,,,,,,,,,,,,470.6513,471.5006,2,60,Cupcake,6,0,incompatible,Items_pictures/60_cupcake.png,0.1666,avoid,1.577900269,1,60,0,60,0,1,,,,
,,,052224,001,2026-03-27_13h08.25.880,AAT,2024.2.4,MacIntel,57.80346821,,,471.8176,472.5337,,,,,,,,,,,,,,,,,,,,,,,472.5339,473.2843,2,56,Macarons,6,0,incompatible,Items_pictures/56_macaron.png,0.1506,avoid,1.75981319,1,61,0,61,0,1,,,,
,,,052224,001,2026-03-27_13h08.25.880,AAT,2024.2.4,MacIntel,57.80346821,,,473.6002,474.3165,,,,,,,,,,,,,,,,,,,,,,,474.3171,476.3174,2,15,Flute,2,1,compatible,Items_pictures/15_flute.png,,none,,0,62,0,62,0,1,,,,
,,,052224,001,2026-03-27_13h08.25.880,AAT,2024.2.4,MacIntel,57.80346821,,,476.8338,477.3843,,,,,,,,,,,,,,,,,,,,,,,477.3845,479.4008,2,5,Bell pepper,1,1,compatible,Items_pictures/5_bell_pepper.png,,none,,0,63,0,63,0,1,,,,
,,,052224,001,2026-03-27_13h08.25.880,AAT,2024.2.4,MacIntel,57.80346821,,,479.9176,480.701,,,,,,,,,,,,,,,,,,,,,,,480.7014,482.7176,2,18,Popcorn,2,1,compatible,Items_pictures/18_popcorn.png,,none,,0,64,0,64,0,1,,,,
,,,052224,001,2026-03-27_13h08.25.880,AAT,2024.2.4,MacIntel,57.80346821,,,483.2344,483.9673,,,,,,,,,,,,,,,,,,,,,,,483.9677,485.9843,2,20,Tortillas,2,1,compatible,Items_pictures/20_tortillas.png,,none,,0,65,0,65,0,1,,,,
,,,052224,001,2026-03-27_13h08.25.880,AAT,2024.2.4,MacIntel,57.80346821,,,486.501,486.8498,,,,,,,,,,,,,,,,,,,,,,,486.8503,488.8506,2,1,Apple slice,1,0,incompatible,Items_pictures/1_apple.png,,none,,0,66,0,66,0,1,,,,
,,,052224,001,2026-03-27_13h08.25.880,AAT,2024.2.4,MacIntel,57.80346821,,,489.3676,489.8336,,,,,,,,,,,,,,,,,,,,,,,489.834,491.8343,2,55,Creme brulee,6,0,incompatible,Items_pictures/55_creme_brulee.png,,none,,0,67,0,67,0,1,,,,
,,,052224,001,2026-03-27_13h08.25.880,AAT,2024.2.4,MacIntel,57.80346821,,,492.3509,493.1008,,,,,,,,,,,,,,,,,,,,,,,493.1011,495.1172,2,56,Macarons,6,0,incompatible,Items_pictures/56_macaron.png,,none,,0,68,0,68,0,1,,,,
,,,052224,001,2026-03-27_13h08.25.880,AAT,2024.2.4,MacIntel,57.80346821,,,495.6344,496.0009,,,,,,,,,,,,,,,,,,,,,,,496.0013,498.0174,2,53,Ice cream cup,6,0,incompatible,Items_pictures/53_ice_cream.png,,none,,0,69,0,69,0,1,,,,
,,,052224,001,2026-03-27_13h08.25.880,AAT,2024.2.4,MacIntel,57.80346821,,,498.5342,499.0004,,,,,,,,,,,,,,,,,,,,,,,499.0008,501.0174,2,60,Cupcake,6,0,incompatible,Items_pictures/60_cupcake.png,,none,,0,70,0,70,0,1,,,,
,,,052224,001,2026-03-27_13h08.25.880,AAT,2024.2.4,MacIntel,57.80346821,,,501.5342,502.2676,,,,,,,,,,,,,,,,,,,,,,,502.2682,504.2839,2,36,Pretzel,4,1,compatible,Items_pictures/36_pretzel.png,,none,,0,71,0,71,0,1,,,,
,,,052224,001,2026-03-27_13h08.25.880,AAT,2024.2.4,MacIntel,57.80346821,,,504.8007,505.3008,,,,,,,,,,,,,,,,,,,,,,,505.3011,507.3173,2,44,Chocolate bar,5,0,incompatible,Items_pictures/44_chocolate_snack.png,,none,,0,72,0,72,0,1,,,,
,,,052224,001,2026-03-27_13h08.25.880,AAT,2024.2.4,MacIntel,57.80346821,,,507.8341,508.1506,,,,,,,,,,,,,,,,,,,,,,,508.1511,510.1682,2,5,Bell pepper,1,1,compatible,Items_pictures/5_bell_pepper.png,,none,,0,73,0,73,0,1,,,,
,,,052224,001,2026-03-27_13h08.25.880,AAT,2024.2.4,MacIntel,57.80346821,,,510.6836,511.2839,,,,,,,,,,,,,,,,,,,,,,,511.2845,513.2997,2,53,Ice cream cup,6,0,incompatible,Items_pictures/53_ice_cream.png,,none,,0,74,0,74,0,1,,,,
,,,052224,001,2026-03-27_13h08.25.880,AAT,2024.2.4,MacIntel,57.80346821,,,513.8006,514.3005,,,,,,,,,,,,,,,,,,,,,,,514.3008,516.3173,2,42,"Chocolate snacks (e.g. Kinder, Knoppers)",5,0,incompatible,Items_pictures/42_chocolate_snack.png,,none,,0,75,0,75,0,1,,,,
,,,052224,001,2026-03-27_13h08.25.880,AAT,2024.2.4,MacIntel,57.80346821,,,516.8337,517.2494,,,,,,,,,,,,,,,,,,,,,,,517.2499,519.2506,2,30,Onion rings,3,1,compatible,Items_pictures/30_onion_rings.png,,none,,0,76,0,76,0,1,,,,
,,,052224,001,2026-03-27_13h08.25.880,AAT,2024.2.4,MacIntel,57.80346821,,,519.7668,520.3168,,,,,,,,,,,,,,,,,,,,,,,520.317,521.1501,2,5,Bell pepper,1,1,compatible,Items_pictures/5_bell_pepper.png,0.1835,approach,0.847756382,1,77,0,77,0,1,,,,
,,,052224,001,2026-03-27_13h08.25.880,AAT,2024.2.4,MacIntel,57.80346821,,,521.4507,522.1007,,,,,,,,,,,,,,,,,,,,,,,522.1012,523.1841,2,18,Popcorn,2,1,compatible,Items_pictures/18_popcorn.png,0.6837,approach,0.219954894,1,78,0,78,0,1,,,,
,,,052224,001,2026-03-27_13h08.25.880,AAT,2024.2.4,MacIntel,57.80346821,,,523.5001,524.2495,,,,,,,,,,,,,,,,,,,,,,,524.2499,524.8335,2,25,French fries,3,1,compatible,Items_pictures/25_fries.png,0.1842,approach,0.854449133,1,79,0,79,0,1,,,,
,,,052224,001,2026-03-27_13h08.25.880,AAT,2024.2.4,MacIntel,57.80346821,,,525.1504,525.7834,,,,,,,,,,,,,,,,,,,,,,,525.7836,526.4843,2,1,Apple slice,1,0,incompatible,Items_pictures/1_apple.png,0.2005,avoid,1.137284178,1,80,0,80,0,1,,,,
,,,052224,001,2026-03-27_13h08.25.880,AAT,2024.2.4,MacIntel,57.80346821,,,526.7998,527.4504,,,,,,,,,,,,,,,,,,,,,,,527.4507,528.2003,2,25,French fries,3,1,compatible,Items_pictures/25_fries.png,0.2834,approach,0.585755769,1,81,0,81,0,1,,,,
,,,052224,001,2026-03-27_13h08.25.880,AAT,2024.2.4,MacIntel,57.80346821,,,528.5171,528.849,,,,,,,,,,,,,,,,,,,,,,,528.8492,530.2836,2,37,Pain au chocolat,4,0,incompatible,Items_pictures/37_pain_chocolat.png,0.6512,avoid,0.578259367,1,82,0,82,0,1,,,,
,,,052224,001,2026-03-27_13h08.25.880,AAT,2024.2.4,MacIntel,57.80346821,,,530.5996,531.1337,,,,,,,,,,,,,,,,,,,,,,,531.1338,531.7022,2,20,Tortillas,2,1,compatible,Items_pictures/20_tortillas.png,0.1529,approach,1.143692746,1,83,0,83,0,1,,,,
,,,052224,001,2026-03-27_13h08.25.880,AAT,2024.2.4,MacIntel,57.80346821,,,532.0172,532.7334,,,,,,,,,,,,,,,,,,,,,,,532.7337,533.4493,2,34,Donuts,4,0,incompatible,Items_pictures/34_donuts.png,0.1489,avoid,3.481676132,1,84,0,84,0,1,,,,
,,,052224,001,2026-03-27_13h08.25.880,AAT,2024.2.4,MacIntel,57.80346821,,,533.7504,534.1837,,,,,,,,,,,,,,,,,,,,,,,534.1841,534.6502,2,15,Flute,2,1,compatible,Items_pictures/15_flute.png,0.1342,approach,1.289748108,1,85,0,85,0,1,,,,
,,,052224,001,2026-03-27_13h08.25.880,AAT,2024.2.4,MacIntel,57.80346821,,,534.9669,535.5499,,,,,,,,,,,,,,,,,,,,,,,535.5501,536.4344,2,43,"Chocolate snacks (e.g. Kinder, Knoppers)",5,0,incompatible,Items_pictures/43_chocolate_snack.png,0.1842,avoid,1.944655879,1,86,0,86,0,1,,,,
,,,052224,001,2026-03-27_13h08.25.880,AAT,2024.2.4,MacIntel,57.80346821,,,536.7502,537.3333,,,,,,,,,,,,,,,,,,,,,,,537.3336,538.0667,2,44,Chocolate bar,5,0,incompatible,Items_pictures/44_chocolate_snack.png,0.3509,approach,0.641406856,1,87,0,87,0,1,,,,
,,,052224,001,2026-03-27_13h08.25.880,AAT,2024.2.4,MacIntel,57.80346821,,,538.5824,539.2673,,,,,,,,,,,,,,,,,,,,,,,539.2678,539.9835,2,25,French fries,3,1,compatible,Items_pictures/25_fries.png,0.3166,approach,0.67539047,1,88,0,88,0,1,,,,
,,,052224,001,2026-03-27_13h08.25.880,AAT,2024.2.4,MacIntel,57.80346821,,,540.2996,541.0166,,,,,,,,,,,,,,,,,,,,,,,541.0171,541.7491,2,42,"Chocolate snacks (e.g. Kinder, Knoppers)",5,0,incompatible,Items_pictures/42_chocolate_snack.png,0.1324,avoid,1.622536597,1,89,0,89,0,1,,,,
,,,052224,001,2026-03-27_13h08.25.880,AAT,2024.2.4,MacIntel,57.80346821,,,542.0506,542.7166,,,,,,,,,,,,,,,,,,,,,,,542.7168,543.6832,2,34,Donuts,4,0,incompatible,Items_pictures/34_donuts.png,0.234,avoid,1.318627851,1,90,0,90,0,1,,,,
,,,052224,001,2026-03-27_13h08.25.880,AAT,2024.2.4,MacIntel,57.80346821,,,543.9838,544.4332,,,,,,,,,,,,,,,,,,,,,,,544.4334,545.3496,2,56,Macarons,6,0,incompatible,Items_pictures/56_macaron.png,0.1997,avoid,2.21812117,1,91,0,91,0,1,,,,
,,,052224,001,2026-03-27_13h08.25.880,AAT,2024.2.4,MacIntel,57.80346821,,,545.6501,546.3671,,,,,,,,,,,,,,,,,,,,,,,546.3678,548.3839,2,39,Muffin,4,0,incompatible,Items_pictures/39_muffin.png,,none,,0,92,0,92,0,1,,,,
,,,052224,001,2026-03-27_13h08.25.880,AAT,2024.2.4,MacIntel,57.80346821,,,548.9004,549.267,,,,,,,,,,,,,,,,,,,,,,,549.2673,551.2828,2,25,French fries,3,1,compatible,Items_pictures/25_fries.png,,none,,0,93,0,93,0,1,,,,
,,,052224,001,2026-03-27_13h08.25.880,AAT,2024.2.4,MacIntel,57.80346821,,,551.7841,552.3505,,,,,,,,,,,,,,,,,,,,,,,552.3508,554.3671,2,28,Burger (vegetarian),3,1,compatible,Items_pictures/28_veg_burger.png,,none,,0,94,0,94,0,1,,,,
,,,052224,001,2026-03-27_13h08.25.880,AAT,2024.2.4,MacIntel,57.80346821,,,554.8837,555.3658,,,,,,,,,,,,,,,,,,,,,,,555.3662,557.3672,2,22,Pizza (vegetarian),3,1,compatible,Items_pictures/22_veg_pizza.png,,none,,0,95,0,95,0,1,,,,
,,,052224,001,2026-03-27_13h08.25.880,AAT,2024.2.4,MacIntel,57.80346821,,,557.8838,558.6004,,,,,,,,,,,,,,,,,,,,,,,558.6009,560.6169,2,53,Ice cream cup,6,0,incompatible,Items_pictures/53_ice_cream.png,,none,,0,96,0,96,0,1,,,,
,,,052224,001,2026-03-27_13h08.25.880,AAT,2024.2.4,MacIntel,57.80346821,,,561.1339,561.6837,,,,,,,,,,,,,,,,,,,,,,,561.6841,563.7005,2,6,Cut strawberry,1,0,incompatible,Items_pictures/6_strawberries.png,,none,,0,97,0,97,0,1,,,,
,,,052224,001,2026-03-27_13h08.25.880,AAT,2024.2.4,MacIntel,57.80346821,,,564.2161,564.9671,,,,,,,,,,,,,,,,,,,,,,,564.9674,566.9835,2,28,Burger (vegetarian),3,1,compatible,Items_pictures/28_veg_burger.png,,none,,0,98,0,98,0,1,,,,
,,,052224,001,2026-03-27_13h08.25.880,AAT,2024.2.4,MacIntel,57.80346821,,,567.5006,567.9505,,,,,,,,,,,,,,,,,,,,,,,567.9509,569.9672,2,43,"Chocolate snacks (e.g. Kinder, Knoppers)",5,0,incompatible,Items_pictures/43_chocolate_snack.png,,none,,0,99,0,99,0,1,,,,
,,,052224,001,2026-03-27_13h08.25.880,AAT,2024.2.4,MacIntel,57.80346821,,,570.4833,571.1003,,,,,,,,,,,,,,,,,,,,,,,571.1006,573.1167,2,25,French fries,3,1,compatible,Items_pictures/25_fries.png,,none,,0,100,0,100,0,1,,,,
,,,052224,001,2026-03-27_13h08.25.880,AAT,2024.2.4,MacIntel,57.80346821,,,573.6336,574.4,,,,,,,,,,,,,,,,,,,,,,,574.4003,576.417,2,1,Apple slice,1,0,incompatible,Items_pictures/1_apple.png,,none,,0,101,0,101,0,1,,,,
,,,052224,001,2026-03-27_13h08.25.880,AAT,2024.2.4,MacIntel,57.80346821,,,576.9338,577.7161,,,,,,,,,,,,,,,,,,,,,,,577.7165,579.7169,2,56,Macarons,6,0,incompatible,Items_pictures/56_macaron.png,,none,,0,102,0,102,0,1,,,,
,,,052224,001,2026-03-27_13h08.25.880,AAT,2024.2.4,MacIntel,57.80346821,,,580.2336,580.8667,,,,,,,,,,,,,,,,,,,,,,,580.8671,582.8834,2,34,Donuts,4,0,incompatible,Items_pictures/34_donuts.png,,none,,0,103,0,103,0,1,,,,
,,,052224,001,2026-03-27_13h08.25.880,AAT,2024.2.4,MacIntel,57.80346821,,,583.3997,583.9835,,,,,,,,,,,,,,,,,,,,,,,583.986,586.0002,2,20,Tortillas,2,1,compatible,Items_pictures/20_tortillas.png,,none,,0,104,0,104,0,1,,,,
,,,052224,001,2026-03-27_13h08.25.880,AAT,2024.2.4,MacIntel,57.80346821,,,586.5158,587.1002,,,,,,,,,,,,,,,,,,,,,,,587.1006,589.1171,2,5,Bell pepper,1,1,compatible,Items_pictures/5_bell_pepper.png,,none,,0,105,0,105,0,1,,,,
,,,052224,001,2026-03-27_13h08.25.880,AAT,2024.2.4,MacIntel,57.80346821,,,589.633,590.1003,,,,,,,,,,,,,,,,,,,,,,,590.1007,592.117,2,42,"Chocolate snacks (e.g. Kinder, Knoppers)",5,0,incompatible,Items_pictures/42_chocolate_snack.png,,none,,0,106,0,106,0,1,,,,
,,,052224,001,2026-03-27_13h08.25.880,AAT,2024.2.4,MacIntel,57.80346821,,,592.6339,593.0669,,,,,,,,,,,,,,,,,,,,,,,593.0673,595.0824,2,22,Pizza (vegetarian),3,1,compatible,Items_pictures/22_veg_pizza.png,,none,,0,107,0,107,0,1,,,,
,,,052224,001,2026-03-27_13h08.25.880,AAT,2024.2.4,MacIntel,57.80346821,,,595.5837,596.0503,,,,,,,,,,,,,,,,,,,,,,,596.0506,598.0657,2,28,Burger (vegetarian),3,1,compatible,Items_pictures/28_veg_burger.png,,none,,0,108,0,108,0,1,,,,
,,,052224,001,2026-03-27_13h08.25.880,AAT,2024.2.4,MacIntel,57.80346821,,,598.5832,599.3169,,,,,,,,,,,,,,,,,,,,,,,599.3173,601.3336,2,6,Cut strawberry,1,0,incompatible,Items_pictures/6_strawberries.png,,none,,0,109,0,109,0,1,,,,
,,,052224,001,2026-03-27_13h08.25.880,AAT,2024.2.4,MacIntel,57.80346821,,,601.8493,602.6165,,,,,,,,,,,,,,,,,,,,,,,602.6167,604.6325,2,39,Muffin,4,0,incompatible,Items_pictures/39_muffin.png,,none,,0,110,0,110,0,1,,,,
,,,052224,001,2026-03-27_13h08.25.880,AAT,2024.2.4,MacIntel,57.80346821,,,605.1502,605.6169,,,,,,,,,,,,,,,,,,,,,,,605.6174,607.6335,2,15,Flute,2,1,compatible,Items_pictures/15_flute.png,,none,,0,111,0,111,0,1,,,,
,,,052224,001,2026-03-27_13h08.25.880,AAT,2024.2.4,MacIntel,57.80346821,,,608.1493,608.8658,,,,,,,,,,,,,,,,,,,,,,,608.8661,610.8669,2,41,"Chocolate snacks (e.g. Kinder, Knoppers)",5,0,incompatible,Items_pictures/41_chocolate_snack.png,,none,,0,112,0,112,0,1,,,,
,,,052224,001,2026-03-27_13h08.25.880,AAT,2024.2.4,MacIntel,57.80346821,,,611.3838,611.9158,,,,,,,,,,,,,,,,,,,,,,,611.9162,613.9165,2,13,Crisps,2,1,compatible,Items_pictures/13_crisps.png,,none,,0,113,0,113,0,1,,,,
,,,052224,001,2026-03-27_13h08.25.880,AAT,2024.2.4,MacIntel,57.80346821,,,614.4337,615.0334,,,,,,,,,,,,,,,,,,,,,,,615.0337,617.0502,2,13,Crisps,2,1,compatible,Items_pictures/13_crisps.png,,none,,0,114,0,114,0,1,,,,
,,,052224,001,2026-03-27_13h08.25.880,AAT,2024.2.4,MacIntel,57.80346821,,,617.5663,617.8994,,,,,,,,,,,,,,,,,,,,,,,617.8998,619.9155,2,18,Popcorn,2,1,compatible,Items_pictures/18_popcorn.png,,none,,0,115,0,115,0,1,,,,
,,,052224,001,2026-03-27_13h08.25.880,AAT,2024.2.4,MacIntel,57.80346821,,,620.433,620.8831,,,,,,,,,,,,,,,,,,,,,,,620.884,622.8995,2,43,"Chocolate snacks (e.g. Kinder, Knoppers)",5,0,incompatible,Items_pictures/43_chocolate_snack.png,,none,,0,116,0,116,0,1,,,,
,,,052224,001,2026-03-27_13h08.25.880,AAT,2024.2.4,MacIntel,57.80346821,,,623.4167,623.8667,,,,,,,,,,,,,,,,,,,,,,,623.867,625.8828,2,56,Macarons,6,0,incompatible,Items_pictures/56_macaron.png,,none,,0,117,0,117,0,1,,,,
,,,052224,001,2026-03-27_13h08.25.880,AAT,2024.2.4,MacIntel,57.80346821,,,626.3836,626.9495,,,,,,,,,,,,,,,,,,,,,,,626.9498,628.9501,2,30,Onion rings,3,1,compatible,Items_pictures/30_onion_rings.png,,none,,0,118,0,118,0,1,,,,
,,,052224,001,2026-03-27_13h08.25.880,AAT,2024.2.4,MacIntel,57.80346821,,,629.4667,630.2158,,,,,,,,,,,,,,,,,,,,,,,630.2162,632.2164,2,22,Pizza (vegetarian),3,1,compatible,Items_pictures/22_veg_pizza.png,,none,,0,119,0,119,0,1,,,,
,,,052224,001,2026-03-27_13h08.25.880,AAT,2024.2.4,MacIntel,57.80346821,,,,,,,,,,,,,,,,,,,,,,,,,,,,,,,,,,,,,,,,,,,,,632.7336,632.7396,632.7474,635.7509
