Setup.started,Setup.stopped,participant,lang,date,expName,psychopyVersion,OS,frameRate,hub,task,AFC_instructions.started,AFC_instructions.stopped,AFC_practice_instructions.started,AFC_practice_instructions.stopped,AFC_practice_fixation.started,AFC_practice_fixation.stopped,AFC_practice_trial.started,AFC_practice_trial.stopped,afc_prac_left_image,afc_prac_right_image,afc_prac_choice,afc_prac_responded,afc_prac_loop.thisRepN,afc_prac_loop.thisTrialN,afc_prac_loop.thisN,afc_prac_loop.thisIndex,afc_prac_loop.ran,AFC_block_start.started,AFC_block_start.stopped,AFC_fixation.started,AFC_fixation.stopped,AFC_trial.started,AFC_trial.stopped,afc_block,afc_left_food_item,afc_right_food_item,afc_left_image,afc_right_image,afc_left_category,afc_right_category,afc_left_cond,afc_right_cond,afc_choice,afc_chosen_item,afc_RT,afc_responded,afc_trial_loop.thisRepN,afc_trial_loop.thisTrialN,afc_trial_loop.thisN,afc_trial_loop.thisIndex,afc_trial_loop.ran,AFC_break.started,AFC_break.stopped,Bye.started,Bye.stopped
0.003,0.004,Marie-testing-againandagainandagaaaaain,fr,2026-04-21_11h09.05.033,AFC,2024.2.4,iPhone,50,https://run.pavlovia.org/LNS/hub/,AFC,,,,,,,,,,,,,,,,,,,,,,,,,,,,,,,,,,,,,,,,,,,,,
,,Marie-testing-againandagainandagaaaaain,fr,2026-04-21_11h09.05.033,AFC,2024.2.4,iPhone,50,https://run.pavlovia.org/LNS/hub/,AFC,0.004,1.319,,,,,,,,,,,,,,,,,,,,,,,,,,,,,,,,,,,,,,,,,,,
,,Marie-testing-againandagainandagaaaaain,fr,2026-04-21_11h09.05.033,AFC,2024.2.4,iPhone,50,https://run.pavlovia.org/LNS/hub/,AFC,,,1.319,3.026,,,,,,,,,,,,,,,,,,,,,,,,,,,,,,,,,,,,,,,,,
,,Marie-testing-againandagainandagaaaaain,fr,2026-04-21_11h09.05.033,AFC,2024.2.4,iPhone,50,https://run.pavlovia.org/LNS/hub/,AFC,,,,,3.028,3.537,3.539,4.639,Practice_pictures/Practice_cake.png,Practice_pictures/Practice_sushi.png,left,1,0,0,0,0,1,,,,,,,,,,,,,,,,,,,,,,,,,,,,
,,Marie-testing-againandagainandagaaaaain,fr,2026-04-21_11h09.05.033,AFC,2024.2.4,iPhone,50,https://run.pavlovia.org/LNS/hub/,AFC,,,,,4.645,5.29,5.291,6.158,Practice_pictures/Practice_kiwi.png,Practice_pictures/Practice_brocoli.png,right,1,1,0,1,0,1,,,,,,,,,,,,,,,,,,,,,,,,,,,,
,,Marie-testing-againandagainandagaaaaain,fr,2026-04-21_11h09.05.033,AFC,2024.2.4,iPhone,50,https://run.pavlovia.org/LNS/hub/,AFC,,,,,6.159,6.458,6.459,7.644,Practice_pictures/Practice_cake.png,Practice_pictures/Practice_kiwi.png,left,1,2,0,2,0,1,,,,,,,,,,,,,,,,,,,,,,,,,,,,
,,Marie-testing-againandagainandagaaaaain,fr,2026-04-21_11h09.05.033,AFC,2024.2.4,iPhone,50,https://run.pavlovia.org/LNS/hub/,AFC,,,,,7.644,8.195,8.195,9.196,Practice_pictures/Practice_sushi.png,Practice_pictures/Practice_kiwi.png,left,1,3,0,3,0,1,,,,,,,,,,,,,,,,,,,,,,,,,,,,
,,Marie-testing-againandagainandagaaaaain,fr,2026-04-21_11h09.05.033,AFC,2024.2.4,iPhone,50,https://run.pavlovia.org/LNS/hub/,AFC,,,,,,,,,,,,,,,,,,9.2,10.12,10.837,11.484,11.486,12.387,1,49,30,Items_pictures/49_chocolate_cookie.png,Items_pictures/30_onion_rings.png,5,3,0,1,left,49,0.64,1,0,0,0,0,1,,,,
,,Marie-testing-againandagainandagaaaaain,fr,2026-04-21_11h09.05.033,AFC,2024.2.4,iPhone,50,https://run.pavlovia.org/LNS/hub/,AFC,,,,,,,,,,,,,,,,,,,,12.388,13.138,13.138,14.173,1,11,35,Items_pictures/11_crisps.png,Items_pictures/35_focaccia.png,2,4,1,1,right,35,0.775,1,1,0,1,0,1,,,,
,,Marie-testing-againandagainandagaaaaain,fr,2026-04-21_11h09.05.033,AFC,2024.2.4,iPhone,50,https://run.pavlovia.org/LNS/hub/,AFC,,,,,,,,,,,,,,,,,,,,14.173,14.757,14.757,15.793,1,51,41,Items_pictures/51_tiramisu.png,Items_pictures/41_chocolate_snack.png,6,5,0,0,left,51,0.777,1,2,0,2,0,1,,,,
,,Marie-testing-againandagainandagaaaaain,fr,2026-04-21_11h09.05.033,AFC,2024.2.4,iPhone,50,https://run.pavlovia.org/LNS/hub/,AFC,,,,,,,,,,,,,,,,,,,,15.793,16.277,16.277,17.346,1,51,17,Items_pictures/51_tiramisu.png,Items_pictures/17_flips.png,6,2,0,1,left,51,0.803,1,3,0,3,0,1,,,,
,,Marie-testing-againandagainandagaaaaain,fr,2026-04-21_11h09.05.033,AFC,2024.2.4,iPhone,50,https://run.pavlovia.org/LNS/hub/,AFC,,,,,,,,,,,,,,,,,,,,17.346,17.814,17.814,18.931,1,22,25,Items_pictures/22_veg_pizza.png,Items_pictures/25_fries.png,3,3,1,1,left,22,0.86,1,4,0,4,0,1,,,,
,,Marie-testing-againandagainandagaaaaain,fr,2026-04-21_11h09.05.033,AFC,2024.2.4,iPhone,50,https://run.pavlovia.org/LNS/hub/,AFC,,,,,,,,,,,,,,,,,,,,18.932,19.432,19.433,20.434,1,51,47,Items_pictures/51_tiramisu.png,Items_pictures/47_gummy_candy.png,6,5,0,0,none,none,,0,5,0,5,0,1,,,,
,,Marie-testing-againandagainandagaaaaain,fr,2026-04-21_11h09.05.033,AFC,2024.2.4,iPhone,50,https://run.pavlovia.org/LNS/hub/,AFC,,,,,,,,,,,,,,,,,,,,20.685,21.303,21.303,22.154,1,10,4,Items_pictures/10_dried_fruits.png,Items_pictures/4_plain_yogurt.png,1,1,0,0,left,10,0.593,1,6,0,6,0,1,,,,
,,Marie-testing-againandagainandagaaaaain,fr,2026-04-21_11h09.05.033,AFC,2024.2.4,iPhone,50,https://run.pavlovia.org/LNS/hub/,AFC,,,,,,,,,,,,,,,,,,,,22.155,22.505,22.505,23.356,1,37,12,Items_pictures/37_pain_chocolat.png,Items_pictures/12_crisps.png,4,2,0,1,right,12,0.591,1,7,0,7,0,1,,,,
,,Marie-testing-againandagainandagaaaaain,fr,2026-04-21_11h09.05.033,AFC,2024.2.4,iPhone,50,https://run.pavlovia.org/LNS/hub/,AFC,,,,,,,,,,,,,,,,,,,,23.358,23.891,23.891,24.776,1,35,15,Items_pictures/35_focaccia.png,Items_pictures/15_flute.png,4,2,1,1,left,35,0.621,1,8,0,8,0,1,,,,
,,Marie-testing-againandagainandagaaaaain,fr,2026-04-21_11h09.05.033,AFC,2024.2.4,iPhone,50,https://run.pavlovia.org/LNS/hub/,AFC,,,,,,,,,,,,,,,,,,,,24.777,25.243,25.244,26.245,1,54,41,Items_pictures/54_ice_cream.png,Items_pictures/41_chocolate_snack.png,6,5,0,0,left,54,0.737,1,9,0,9,0,1,,,,
,,Marie-testing-againandagainandagaaaaain,fr,2026-04-21_11h09.05.033,AFC,2024.2.4,iPhone,50,https://run.pavlovia.org/LNS/hub/,AFC,,,,,,,,,,,,,,,,,,,,26.247,26.796,26.796,27.697,1,12,28,Items_pictures/12_crisps.png,Items_pictures/28_veg_burger.png,2,3,1,1,left,12,0.643,1,10,0,10,0,1,,,,
,,Marie-testing-againandagainandagaaaaain,fr,2026-04-21_11h09.05.033,AFC,2024.2.4,iPhone,50,https://run.pavlovia.org/LNS/hub/,AFC,,,,,,,,,,,,,,,,,,,,27.699,28.282,28.282,29.317,1,35,41,Items_pictures/35_focaccia.png,Items_pictures/41_chocolate_snack.png,4,5,1,0,left,35,0.771,1,11,0,11,0,1,,,,
,,Marie-testing-againandagainandagaaaaain,fr,2026-04-21_11h09.05.033,AFC,2024.2.4,iPhone,50,https://run.pavlovia.org/LNS/hub/,AFC,,,,,,,,,,,,,,,,,,,,29.318,29.718,29.718,30.636,1,57,48,Items_pictures/57_fondant.png,Items_pictures/48_sour_candy.png,6,5,0,0,left,57,0.658,1,12,0,12,0,1,,,,
,,Marie-testing-againandagainandagaaaaain,fr,2026-04-21_11h09.05.033,AFC,2024.2.4,iPhone,50,https://run.pavlovia.org/LNS/hub/,AFC,,,,,,,,,,,,,,,,,,,,30.638,31.438,31.438,32.205,1,57,10,Items_pictures/57_fondant.png,Items_pictures/10_dried_fruits.png,6,1,0,0,right,10,0.506,1,13,0,13,0,1,,,,
,,Marie-testing-againandagainandagaaaaain,fr,2026-04-21_11h09.05.033,AFC,2024.2.4,iPhone,50,https://run.pavlovia.org/LNS/hub/,AFC,,,,,,,,,,,,,,,,,,,,32.208,33.007,33.007,33.86,1,30,17,Items_pictures/30_onion_rings.png,Items_pictures/17_flips.png,3,2,1,1,left,30,0.588,1,14,0,14,0,1,,,,
,,Marie-testing-againandagainandagaaaaain,fr,2026-04-21_11h09.05.033,AFC,2024.2.4,iPhone,50,https://run.pavlovia.org/LNS/hub/,AFC,,,,,,,,,,,,,,,,,,,,33.862,34.46,34.461,35.462,1,57,5,Items_pictures/57_fondant.png,Items_pictures/5_bell_pepper.png,6,1,0,1,left,57,0.741,1,15,0,15,0,1,,,,
,,Marie-testing-againandagainandagaaaaain,fr,2026-04-21_11h09.05.033,AFC,2024.2.4,iPhone,50,https://run.pavlovia.org/LNS/hub/,AFC,,,,,,,,,,,,,,,,,,,,35.464,35.913,35.913,37.015,1,28,51,Items_pictures/28_veg_burger.png,Items_pictures/51_tiramisu.png,3,6,1,0,left,28,0.838,1,16,0,16,0,1,,,,
,,Marie-testing-againandagainandagaaaaain,fr,2026-04-21_11h09.05.033,AFC,2024.2.4,iPhone,50,https://run.pavlovia.org/LNS/hub/,AFC,,,,,,,,,,,,,,,,,,,,37.016,37.499,37.5,38.501,1,10,25,Items_pictures/10_dried_fruits.png,Items_pictures/25_fries.png,1,3,0,1,none,none,,0,17,0,17,0,1,,,,
,,Marie-testing-againandagainandagaaaaain,fr,2026-04-21_11h09.05.033,AFC,2024.2.4,iPhone,50,https://run.pavlovia.org/LNS/hub/,AFC,,,,,,,,,,,,,,,,,,,,38.752,39.119,39.119,40.187,1,5,54,Items_pictures/5_bell_pepper.png,Items_pictures/54_ice_cream.png,1,6,1,0,right,54,0.805,1,18,0,18,0,1,,,,
,,Marie-testing-againandagainandagaaaaain,fr,2026-04-21_11h09.05.033,AFC,2024.2.4,iPhone,50,https://run.pavlovia.org/LNS/hub/,AFC,,,,,,,,,,,,,,,,,,,,40.189,40.639,40.639,41.807,1,25,48,Items_pictures/25_fries.png,Items_pictures/48_sour_candy.png,3,5,1,0,right,48,0.909,1,19,0,19,0,1,,,,
,,Marie-testing-againandagainandagaaaaain,fr,2026-04-21_11h09.05.033,AFC,2024.2.4,iPhone,50,https://run.pavlovia.org/LNS/hub/,AFC,,,,,,,,,,,,,,,,,,,,41.809,42.359,42.359,43.527,1,4,51,Items_pictures/4_plain_yogurt.png,Items_pictures/51_tiramisu.png,1,6,0,0,left,4,0.91,1,20,0,20,0,1,,,,
,,Marie-testing-againandagainandagaaaaain,fr,2026-04-21_11h09.05.033,AFC,2024.2.4,iPhone,50,https://run.pavlovia.org/LNS/hub/,AFC,,,,,,,,,,,,,,,,,,,,43.529,43.945,43.945,44.963,1,48,10,Items_pictures/48_sour_candy.png,Items_pictures/10_dried_fruits.png,5,1,0,0,left,48,0.76,1,21,0,21,0,1,,,,
,,Marie-testing-againandagainandagaaaaain,fr,2026-04-21_11h09.05.033,AFC,2024.2.4,iPhone,50,https://run.pavlovia.org/LNS/hub/,AFC,,,,,,,,,,,,,,,,,,,,44.964,45.397,45.397,46.432,1,59,9,Items_pictures/59_cheesecake.png,Items_pictures/9_healthy_cracker.png,6,1,0,1,left,59,0.772,1,22,0,22,0,1,,,,
,,Marie-testing-againandagainandagaaaaain,fr,2026-04-21_11h09.05.033,AFC,2024.2.4,iPhone,50,https://run.pavlovia.org/LNS/hub/,AFC,,,,,,,,,,,,,,,,,,,,46.434,47.117,47.117,48.252,1,59,10,Items_pictures/59_cheesecake.png,Items_pictures/10_dried_fruits.png,6,1,0,0,left,59,0.875,1,23,0,23,0,1,,,,
,,Marie-testing-againandagainandagaaaaain,fr,2026-04-21_11h09.05.033,AFC,2024.2.4,iPhone,50,https://run.pavlovia.org/LNS/hub/,AFC,,,,,,,,,,,,,,,,,,,,48.254,48.686,48.687,49.771,1,17,10,Items_pictures/17_flips.png,Items_pictures/10_dried_fruits.png,2,1,1,0,left,17,0.834,1,24,0,24,0,1,,,,
,,Marie-testing-againandagainandagaaaaain,fr,2026-04-21_11h09.05.033,AFC,2024.2.4,iPhone,50,https://run.pavlovia.org/LNS/hub/,AFC,,,,,,,,,,,,,,,,,,,,49.773,50.473,50.473,51.691,1,5,17,Items_pictures/5_bell_pepper.png,Items_pictures/17_flips.png,1,2,1,1,right,17,0.954,1,25,0,25,0,1,,,,
,,Marie-testing-againandagainandagaaaaain,fr,2026-04-21_11h09.05.033,AFC,2024.2.4,iPhone,50,https://run.pavlovia.org/LNS/hub/,AFC,,,,,,,,,,,,,,,,,,,,51.693,52.092,52.092,53.194,1,51,31,Items_pictures/51_tiramisu.png,Items_pictures/31_croissant.png,6,4,0,0,right,31,0.849,1,26,0,26,0,1,,,,
,,Marie-testing-againandagainandagaaaaain,fr,2026-04-21_11h09.05.033,AFC,2024.2.4,iPhone,50,https://run.pavlovia.org/LNS/hub/,AFC,,,,,,,,,,,,,,,,,,,,53.196,53.645,53.645,54.647,1,54,22,Items_pictures/54_ice_cream.png,Items_pictures/22_veg_pizza.png,6,3,0,1,right,22,0.738,1,27,0,27,0,1,,,,
,,Marie-testing-againandagainandagaaaaain,fr,2026-04-21_11h09.05.033,AFC,2024.2.4,iPhone,50,https://run.pavlovia.org/LNS/hub/,AFC,,,,,,,,,,,,,,,,,,,,54.648,55.097,55.098,56.233,1,11,41,Items_pictures/11_crisps.png,Items_pictures/41_chocolate_snack.png,2,5,1,0,right,41,0.87,1,28,0,28,0,1,,,,
,,Marie-testing-againandagainandagaaaaain,fr,2026-04-21_11h09.05.033,AFC,2024.2.4,iPhone,50,https://run.pavlovia.org/LNS/hub/,AFC,,,,,,,,,,,,,,,,,,,,56.234,56.884,56.884,58.018,1,11,30,Items_pictures/11_crisps.png,Items_pictures/30_onion_rings.png,2,3,1,1,left,11,0.876,1,29,0,29,0,1,,,,
,,Marie-testing-againandagainandagaaaaain,fr,2026-04-21_11h09.05.033,AFC,2024.2.4,iPhone,50,https://run.pavlovia.org/LNS/hub/,AFC,,,,,,,,,,,,,,,,,,,,58.021,58.536,58.537,59.621,1,28,54,Items_pictures/28_veg_burger.png,Items_pictures/54_ice_cream.png,3,6,1,0,left,28,0.82,1,30,0,30,0,1,,,,
,,Marie-testing-againandagainandagaaaaain,fr,2026-04-21_11h09.05.033,AFC,2024.2.4,iPhone,50,https://run.pavlovia.org/LNS/hub/,AFC,,,,,,,,,,,,,,,,,,,,59.623,60.389,60.389,61.274,1,17,47,Items_pictures/17_flips.png,Items_pictures/47_gummy_candy.png,2,5,1,0,left,17,0.621,1,31,0,31,0,1,,,,
,,Marie-testing-againandagainandagaaaaain,fr,2026-04-21_11h09.05.033,AFC,2024.2.4,iPhone,50,https://run.pavlovia.org/LNS/hub/,AFC,,,,,,,,,,,,,,,,,,,,61.276,61.691,61.692,62.776,1,10,30,Items_pictures/10_dried_fruits.png,Items_pictures/30_onion_rings.png,1,3,0,1,right,30,0.821,1,32,0,32,0,1,,,,
,,Marie-testing-againandagainandagaaaaain,fr,2026-04-21_11h09.05.033,AFC,2024.2.4,iPhone,50,https://run.pavlovia.org/LNS/hub/,AFC,,,,,,,,,,,,,,,,,,,,62.778,63.377,63.378,64.212,1,59,57,Items_pictures/59_cheesecake.png,Items_pictures/57_fondant.png,6,6,0,0,left,59,0.571,1,33,0,33,0,1,,,,
,,Marie-testing-againandagainandagaaaaain,fr,2026-04-21_11h09.05.033,AFC,2024.2.4,iPhone,50,https://run.pavlovia.org/LNS/hub/,AFC,,,,,,,,,,,,,,,,,,,,64.214,64.83,64.831,65.932,1,30,9,Items_pictures/30_onion_rings.png,Items_pictures/9_healthy_cracker.png,3,1,1,1,left,30,0.843,1,34,0,34,0,1,,,,
,,Marie-testing-againandagainandagaaaaain,fr,2026-04-21_11h09.05.033,AFC,2024.2.4,iPhone,50,https://run.pavlovia.org/LNS/hub/,AFC,,,,,,,,,,,,,,,,,,,,65.933,66.633,66.634,67.768,1,51,10,Items_pictures/51_tiramisu.png,Items_pictures/10_dried_fruits.png,6,1,0,0,right,10,0.871,1,35,0,35,0,1,,,,
,,Marie-testing-againandagainandagaaaaain,fr,2026-04-21_11h09.05.033,AFC,2024.2.4,iPhone,50,https://run.pavlovia.org/LNS/hub/,AFC,,,,,,,,,,,,,,,,,,,,67.77,68.553,68.554,69.472,1,31,12,Items_pictures/31_croissant.png,Items_pictures/12_crisps.png,4,2,0,1,left,31,0.659,1,36,0,36,0,1,,,,
,,Marie-testing-againandagainandagaaaaain,fr,2026-04-21_11h09.05.033,AFC,2024.2.4,iPhone,50,https://run.pavlovia.org/LNS/hub/,AFC,,,,,,,,,,,,,,,,,,,,69.473,70.173,70.173,71.041,1,17,25,Items_pictures/17_flips.png,Items_pictures/25_fries.png,2,3,1,1,left,17,0.611,1,37,0,37,0,1,,,,
,,Marie-testing-againandagainandagaaaaain,fr,2026-04-21_11h09.05.033,AFC,2024.2.4,iPhone,50,https://run.pavlovia.org/LNS/hub/,AFC,,,,,,,,,,,,,,,,,,,,71.043,71.442,71.442,72.56,1,54,4,Items_pictures/54_ice_cream.png,Items_pictures/4_plain_yogurt.png,6,1,0,0,left,54,0.856,1,38,0,38,0,1,,,,
,,Marie-testing-againandagainandagaaaaain,fr,2026-04-21_11h09.05.033,AFC,2024.2.4,iPhone,50,https://run.pavlovia.org/LNS/hub/,AFC,,,,,,,,,,,,,,,,,,,,72.562,73.095,73.095,74.314,1,49,41,Items_pictures/49_chocolate_cookie.png,Items_pictures/41_chocolate_snack.png,5,5,0,0,right,41,0.96,1,39,0,39,0,1,,,,
,,Marie-testing-againandagainandagaaaaain,fr,2026-04-21_11h09.05.033,AFC,2024.2.4,iPhone,50,https://run.pavlovia.org/LNS/hub/,AFC,,,,,,,,,,,,,,,,,,,,74.315,75.049,75.049,76.217,1,54,48,Items_pictures/54_ice_cream.png,Items_pictures/48_sour_candy.png,6,5,0,0,right,48,0.91,1,40,0,40,0,1,,,,
,,Marie-testing-againandagainandagaaaaain,fr,2026-04-21_11h09.05.033,AFC,2024.2.4,iPhone,50,https://run.pavlovia.org/LNS/hub/,AFC,,,,,,,,,,,,,,,,,,,,76.219,76.585,76.585,77.737,1,31,10,Items_pictures/31_croissant.png,Items_pictures/10_dried_fruits.png,4,1,0,0,left,31,0.888,1,41,0,41,0,1,,,,
,,Marie-testing-againandagainandagaaaaain,fr,2026-04-21_11h09.05.033,AFC,2024.2.4,iPhone,50,https://run.pavlovia.org/LNS/hub/,AFC,,,,,,,,,,,,,,,,,,,,77.738,78.121,78.121,79.323,1,22,47,Items_pictures/22_veg_pizza.png,Items_pictures/47_gummy_candy.png,3,5,1,0,left,22,0.939,1,42,0,42,0,1,,,,
,,Marie-testing-againandagainandagaaaaain,fr,2026-04-21_11h09.05.033,AFC,2024.2.4,iPhone,50,https://run.pavlovia.org/LNS/hub/,AFC,,,,,,,,,,,,,,,,,,,,79.325,79.924,79.925,80.809,1,22,5,Items_pictures/22_veg_pizza.png,Items_pictures/5_bell_pepper.png,3,1,1,1,left,22,0.621,1,43,0,43,0,1,,,,
,,Marie-testing-againandagainandagaaaaain,fr,2026-04-21_11h09.05.033,AFC,2024.2.4,iPhone,50,https://run.pavlovia.org/LNS/hub/,AFC,,,,,,,,,,,,,,,,,,,,80.811,81.428,81.428,82.512,1,30,54,Items_pictures/30_onion_rings.png,Items_pictures/54_ice_cream.png,3,6,1,0,right,54,0.821,1,44,0,44,0,1,,,,
,,Marie-testing-againandagainandagaaaaain,fr,2026-04-21_11h09.05.033,AFC,2024.2.4,iPhone,50,https://run.pavlovia.org/LNS/hub/,AFC,,,,,,,,,,,,,,,,,,,,82.514,83.248,83.248,84.216,1,28,59,Items_pictures/28_veg_burger.png,Items_pictures/59_cheesecake.png,3,6,1,0,left,28,0.709,1,45,0,45,0,1,,,,
,,Marie-testing-againandagainandagaaaaain,fr,2026-04-21_11h09.05.033,AFC,2024.2.4,iPhone,50,https://run.pavlovia.org/LNS/hub/,AFC,,,,,,,,,,,,,,,,,,,,84.218,84.951,84.951,86.019,1,41,31,Items_pictures/41_chocolate_snack.png,Items_pictures/31_croissant.png,5,4,0,0,right,31,0.809,1,46,0,46,0,1,,,,
,,Marie-testing-againandagainandagaaaaain,fr,2026-04-21_11h09.05.033,AFC,2024.2.4,iPhone,50,https://run.pavlovia.org/LNS/hub/,AFC,,,,,,,,,,,,,,,,,,,,86.021,86.453,86.453,87.622,1,30,15,Items_pictures/30_onion_rings.png,Items_pictures/15_flute.png,3,2,1,1,right,15,0.906,1,47,0,47,0,1,,,,
,,Marie-testing-againandagainandagaaaaain,fr,2026-04-21_11h09.05.033,AFC,2024.2.4,iPhone,50,https://run.pavlovia.org/LNS/hub/,AFC,,,,,,,,,,,,,,,,,,,,87.623,88.24,88.24,89.241,1,37,31,Items_pictures/37_pain_chocolat.png,Items_pictures/31_croissant.png,4,4,0,0,none,none,,0,48,0,48,0,1,,,,
,,Marie-testing-againandagainandagaaaaain,fr,2026-04-21_11h09.05.033,AFC,2024.2.4,iPhone,50,https://run.pavlovia.org/LNS/hub/,AFC,,,,,,,,,,,,,,,,,,,,89.492,90.093,90.093,91.262,1,25,11,Items_pictures/25_fries.png,Items_pictures/11_crisps.png,3,2,1,1,left,25,0.905,1,49,0,49,0,1,,,,
,,Marie-testing-againandagainandagaaaaain,fr,2026-04-21_11h09.05.033,AFC,2024.2.4,iPhone,50,https://run.pavlovia.org/LNS/hub/,AFC,,,,,,,,,,,,,,,,,,,,91.263,91.763,91.763,92.764,1,5,30,Items_pictures/5_bell_pepper.png,Items_pictures/30_onion_rings.png,1,3,1,1,none,none,,0,50,0,50,0,1,,,,
,,Marie-testing-againandagainandagaaaaain,fr,2026-04-21_11h09.05.033,AFC,2024.2.4,iPhone,50,https://run.pavlovia.org/LNS/hub/,AFC,,,,,,,,,,,,,,,,,,,,93.015,93.432,93.433,94.467,1,11,22,Items_pictures/11_crisps.png,Items_pictures/22_veg_pizza.png,2,3,1,1,left,11,0.775,1,51,0,51,0,1,,,,
,,Marie-testing-againandagainandagaaaaain,fr,2026-04-21_11h09.05.033,AFC,2024.2.4,iPhone,50,https://run.pavlovia.org/LNS/hub/,AFC,,,,,,,,,,,,,,,,,,,,94.469,95.235,95.236,95.97,1,57,37,Items_pictures/57_fondant.png,Items_pictures/37_pain_chocolat.png,6,4,0,0,right,37,0.47,1,52,0,52,0,1,,,,
,,Marie-testing-againandagainandagaaaaain,fr,2026-04-21_11h09.05.033,AFC,2024.2.4,iPhone,50,https://run.pavlovia.org/LNS/hub/,AFC,,,,,,,,,,,,,,,,,,,,95.971,96.32,96.321,97.306,1,11,31,Items_pictures/11_crisps.png,Items_pictures/31_croissant.png,2,4,1,0,right,31,0.726,1,53,0,53,0,1,,,,
,,Marie-testing-againandagainandagaaaaain,fr,2026-04-21_11h09.05.033,AFC,2024.2.4,iPhone,50,https://run.pavlovia.org/LNS/hub/,AFC,,,,,,,,,,,,,,,,,,,,97.307,98.074,98.074,99.109,1,11,40,Items_pictures/11_crisps.png,Items_pictures/40_tresse.png,2,4,1,0,right,40,0.774,1,54,0,54,0,1,,,,
,,Marie-testing-againandagainandagaaaaain,fr,2026-04-21_11h09.05.033,AFC,2024.2.4,iPhone,50,https://run.pavlovia.org/LNS/hub/,AFC,,,,,,,,,,,,,,,,,,,,99.111,99.61,99.611,100.829,1,57,54,Items_pictures/57_fondant.png,Items_pictures/54_ice_cream.png,6,6,0,0,left,57,0.966,1,55,0,55,0,1,,,,
,,Marie-testing-againandagainandagaaaaain,fr,2026-04-21_11h09.05.033,AFC,2024.2.4,iPhone,50,https://run.pavlovia.org/LNS/hub/,AFC,,,,,,,,,,,,,,,,,,,,100.832,101.397,101.398,102.366,1,51,5,Items_pictures/51_tiramisu.png,Items_pictures/5_bell_pepper.png,6,1,0,1,left,51,0.709,1,56,0,56,0,1,,,,
,,Marie-testing-againandagainandagaaaaain,fr,2026-04-21_11h09.05.033,AFC,2024.2.4,iPhone,50,https://run.pavlovia.org/LNS/hub/,AFC,,,,,,,,,,,,,,,,,,,,102.368,103.033,103.034,104.085,1,40,57,Items_pictures/40_tresse.png,Items_pictures/57_fondant.png,4,6,0,0,right,57,0.792,1,57,0,57,0,1,,,,
,,Marie-testing-againandagainandagaaaaain,fr,2026-04-21_11h09.05.033,AFC,2024.2.4,iPhone,50,https://run.pavlovia.org/LNS/hub/,AFC,,,,,,,,,,,,,,,,,,,,104.086,104.586,104.586,105.554,1,22,4,Items_pictures/22_veg_pizza.png,Items_pictures/4_plain_yogurt.png,3,1,1,0,left,22,0.709,1,58,0,58,0,1,,,,
,,Marie-testing-againandagainandagaaaaain,fr,2026-04-21_11h09.05.033,AFC,2024.2.4,iPhone,50,https://run.pavlovia.org/LNS/hub/,AFC,,,,,,,,,,,,,,,,,,,,105.556,106.306,106.306,107.224,1,59,40,Items_pictures/59_cheesecake.png,Items_pictures/40_tresse.png,6,4,0,0,right,40,0.659,1,59,0,59,0,1,,,,
,,Marie-testing-againandagainandagaaaaain,fr,2026-04-21_11h09.05.033,AFC,2024.2.4,iPhone,50,https://run.pavlovia.org/LNS/hub/,AFC,,,,,,,,,,,,,,,,,,,,107.225,107.859,107.859,108.676,1,37,35,Items_pictures/37_pain_chocolat.png,Items_pictures/35_focaccia.png,4,4,0,1,left,37,0.553,1,60,0,60,0,1,,,,
,,Marie-testing-againandagainandagaaaaain,fr,2026-04-21_11h09.05.033,AFC,2024.2.4,iPhone,50,https://run.pavlovia.org/LNS/hub/,AFC,,,,,,,,,,,,,,,,,,,,108.678,109.044,109.044,110.129,1,59,25,Items_pictures/59_cheesecake.png,Items_pictures/25_fries.png,6,3,0,1,left,59,0.822,1,61,0,61,0,1,,,,
,,Marie-testing-againandagainandagaaaaain,fr,2026-04-21_11h09.05.033,AFC,2024.2.4,iPhone,50,https://run.pavlovia.org/LNS/hub/,AFC,,,,,,,,,,,,,,,,,,,,110.131,110.797,110.798,111.782,1,25,30,Items_pictures/25_fries.png,Items_pictures/30_onion_rings.png,3,3,1,1,left,25,0.725,1,62,0,62,0,1,,,,
,,Marie-testing-againandagainandagaaaaain,fr,2026-04-21_11h09.05.033,AFC,2024.2.4,iPhone,50,https://run.pavlovia.org/LNS/hub/,AFC,,,,,,,,,,,,,,,,,,,,111.784,112.501,112.502,113.453,1,35,51,Items_pictures/35_focaccia.png,Items_pictures/51_tiramisu.png,4,6,1,0,left,35,0.687,1,63,0,63,0,1,,,,
,,Marie-testing-againandagainandagaaaaain,fr,2026-04-21_11h09.05.033,AFC,2024.2.4,iPhone,50,https://run.pavlovia.org/LNS/hub/,AFC,,,,,,,,,,,,,,,,,,,,113.455,113.937,113.938,114.738,1,5,12,Items_pictures/5_bell_pepper.png,Items_pictures/12_crisps.png,1,2,1,1,right,12,0.541,1,64,0,64,0,1,,,,
,,Marie-testing-againandagainandagaaaaain,fr,2026-04-21_11h09.05.033,AFC,2024.2.4,iPhone,50,https://run.pavlovia.org/LNS/hub/,AFC,,,,,,,,,,,,,,,,,,,,114.74,115.457,115.457,116.425,1,10,41,Items_pictures/10_dried_fruits.png,Items_pictures/41_chocolate_snack.png,1,5,0,0,right,41,0.704,1,65,0,65,0,1,,,,
,,Marie-testing-againandagainandagaaaaain,fr,2026-04-21_11h09.05.033,AFC,2024.2.4,iPhone,50,https://run.pavlovia.org/LNS/hub/,AFC,,,,,,,,,,,,,,,,,,,,116.426,116.876,116.876,117.944,1,40,25,Items_pictures/40_tresse.png,Items_pictures/25_fries.png,4,3,0,1,left,40,0.809,1,66,0,66,0,1,,,,
,,Marie-testing-againandagainandagaaaaain,fr,2026-04-21_11h09.05.033,AFC,2024.2.4,iPhone,50,https://run.pavlovia.org/LNS/hub/,AFC,,,,,,,,,,,,,,,,,,,,117.946,118.712,118.713,119.614,1,9,5,Items_pictures/9_healthy_cracker.png,Items_pictures/5_bell_pepper.png,1,1,1,1,right,5,0.642,1,67,0,67,0,1,,,,
,,Marie-testing-againandagainandagaaaaain,fr,2026-04-21_11h09.05.033,AFC,2024.2.4,iPhone,50,https://run.pavlovia.org/LNS/hub/,AFC,,,,,,,,,,,,,,,,,,,,119.615,120.115,120.115,121.267,1,25,15,Items_pictures/25_fries.png,Items_pictures/15_flute.png,3,2,1,1,left,25,0.889,1,68,0,68,0,1,,,,
,,Marie-testing-againandagainandagaaaaain,fr,2026-04-21_11h09.05.033,AFC,2024.2.4,iPhone,50,https://run.pavlovia.org/LNS/hub/,AFC,,,,,,,,,,,,,,,,,,123.476,124.346,124.944,125.675,125.676,126.56,2,31,49,Items_pictures/31_croissant.png,Items_pictures/49_chocolate_cookie.png,4,5,0,0,left,31,0.624,1,0,0,0,0,1,121.27,123.476,,
,,Marie-testing-againandagainandagaaaaain,fr,2026-04-21_11h09.05.033,AFC,2024.2.4,iPhone,50,https://run.pavlovia.org/LNS/hub/,AFC,,,,,,,,,,,,,,,,,,,,126.562,126.928,126.928,127.845,2,49,57,Items_pictures/49_chocolate_cookie.png,Items_pictures/57_fondant.png,5,6,0,0,left,49,0.654,1,1,0,1,0,1,,,,
,,Marie-testing-againandagainandagaaaaain,fr,2026-04-21_11h09.05.033,AFC,2024.2.4,iPhone,50,https://run.pavlovia.org/LNS/hub/,AFC,,,,,,,,,,,,,,,,,,,,127.847,128.347,128.347,129.348,2,5,15,Items_pictures/5_bell_pepper.png,Items_pictures/15_flute.png,1,2,1,1,right,15,0.738,1,2,0,2,0,1,,,,
,,Marie-testing-againandagainandagaaaaain,fr,2026-04-21_11h09.05.033,AFC,2024.2.4,iPhone,50,https://run.pavlovia.org/LNS/hub/,AFC,,,,,,,,,,,,,,,,,,,,129.349,129.851,129.858,130.784,2,9,35,Items_pictures/9_healthy_cracker.png,Items_pictures/35_focaccia.png,1,4,1,1,left,9,0.662,1,3,0,3,0,1,,,,
,,Marie-testing-againandagainandagaaaaain,fr,2026-04-21_11h09.05.033,AFC,2024.2.4,iPhone,50,https://run.pavlovia.org/LNS/hub/,AFC,,,,,,,,,,,,,,,,,,,,130.786,131.118,131.118,132.052,2,48,41,Items_pictures/48_sour_candy.png,Items_pictures/41_chocolate_snack.png,5,5,0,0,right,41,0.671,1,4,0,4,0,1,,,,
,,Marie-testing-againandagainandagaaaaain,fr,2026-04-21_11h09.05.033,AFC,2024.2.4,iPhone,50,https://run.pavlovia.org/LNS/hub/,AFC,,,,,,,,,,,,,,,,,,,,132.054,132.403,132.403,133.405,2,41,30,Items_pictures/41_chocolate_snack.png,Items_pictures/30_onion_rings.png,5,3,0,1,left,41,0.739,1,5,0,5,0,1,,,,
,,Marie-testing-againandagainandagaaaaain,fr,2026-04-21_11h09.05.033,AFC,2024.2.4,iPhone,50,https://run.pavlovia.org/LNS/hub/,AFC,,,,,,,,,,,,,,,,,,,,133.406,134.056,134.056,134.957,2,54,49,Items_pictures/54_ice_cream.png,Items_pictures/49_chocolate_cookie.png,6,5,0,0,left,54,0.642,1,6,0,6,0,1,,,,
,,Marie-testing-againandagainandagaaaaain,fr,2026-04-21_11h09.05.033,AFC,2024.2.4,iPhone,50,https://run.pavlovia.org/LNS/hub/,AFC,,,,,,,,,,,,,,,,,,,,134.959,135.325,135.325,136.426,2,12,25,Items_pictures/12_crisps.png,Items_pictures/25_fries.png,2,3,1,1,left,12,0.836,1,7,0,7,0,1,,,,
,,Marie-testing-againandagainandagaaaaain,fr,2026-04-21_11h09.05.033,AFC,2024.2.4,iPhone,50,https://run.pavlovia.org/LNS/hub/,AFC,,,,,,,,,,,,,,,,,,,,136.428,136.994,136.994,138.045,2,41,22,Items_pictures/41_chocolate_snack.png,Items_pictures/22_veg_pizza.png,5,3,0,1,right,22,0.79,1,8,0,8,0,1,,,,
,,Marie-testing-againandagainandagaaaaain,fr,2026-04-21_11h09.05.033,AFC,2024.2.4,iPhone,50,https://run.pavlovia.org/LNS/hub/,AFC,,,,,,,,,,,,,,,,,,,,138.047,138.797,138.798,139.782,2,41,40,Items_pictures/41_chocolate_snack.png,Items_pictures/40_tresse.png,5,4,0,0,left,41,0.72,1,9,0,9,0,1,,,,
,,Marie-testing-againandagainandagaaaaain,fr,2026-04-21_11h09.05.033,AFC,2024.2.4,iPhone,50,https://run.pavlovia.org/LNS/hub/,AFC,,,,,,,,,,,,,,,,,,,,139.783,140.116,140.116,141.134,2,49,17,Items_pictures/49_chocolate_cookie.png,Items_pictures/17_flips.png,5,2,0,1,left,49,0.759,1,10,0,10,0,1,,,,
,,Marie-testing-againandagainandagaaaaain,fr,2026-04-21_11h09.05.033,AFC,2024.2.4,iPhone,50,https://run.pavlovia.org/LNS/hub/,AFC,,,,,,,,,,,,,,,,,,,,141.136,141.668,141.669,142.67,2,17,59,Items_pictures/17_flips.png,Items_pictures/59_cheesecake.png,2,6,1,0,left,17,0.741,1,11,0,11,0,1,,,,
,,Marie-testing-againandagainandagaaaaain,fr,2026-04-21_11h09.05.033,AFC,2024.2.4,iPhone,50,https://run.pavlovia.org/LNS/hub/,AFC,,,,,,,,,,,,,,,,,,,,142.672,143.388,143.388,144.307,2,37,4,Items_pictures/37_pain_chocolat.png,Items_pictures/4_plain_yogurt.png,4,1,0,0,left,37,0.655,1,12,0,12,0,1,,,,
,,Marie-testing-againandagainandagaaaaain,fr,2026-04-21_11h09.05.033,AFC,2024.2.4,iPhone,50,https://run.pavlovia.org/LNS/hub/,AFC,,,,,,,,,,,,,,,,,,,,144.308,144.624,144.624,145.626,2,40,28,Items_pictures/40_tresse.png,Items_pictures/28_veg_burger.png,4,3,0,1,none,none,,0,13,0,13,0,1,,,,
,,Marie-testing-againandagainandagaaaaain,fr,2026-04-21_11h09.05.033,AFC,2024.2.4,iPhone,50,https://run.pavlovia.org/LNS/hub/,AFC,,,,,,,,,,,,,,,,,,,,145.877,146.645,146.645,147.48,2,37,10,Items_pictures/37_pain_chocolat.png,Items_pictures/10_dried_fruits.png,4,1,0,0,left,37,0.577,1,14,0,14,0,1,,,,
,,Marie-testing-againandagainandagaaaaain,fr,2026-04-21_11h09.05.033,AFC,2024.2.4,iPhone,50,https://run.pavlovia.org/LNS/hub/,AFC,,,,,,,,,,,,,,,,,,,,147.481,147.897,147.898,148.883,2,5,11,Items_pictures/5_bell_pepper.png,Items_pictures/11_crisps.png,1,2,1,1,right,11,0.725,1,15,0,15,0,1,,,,
,,Marie-testing-againandagainandagaaaaain,fr,2026-04-21_11h09.05.033,AFC,2024.2.4,iPhone,50,https://run.pavlovia.org/LNS/hub/,AFC,,,,,,,,,,,,,,,,,,,,148.884,149.317,149.318,150.353,2,47,15,Items_pictures/47_gummy_candy.png,Items_pictures/15_flute.png,5,2,0,1,right,15,0.771,1,16,0,16,0,1,,,,
,,Marie-testing-againandagainandagaaaaain,fr,2026-04-21_11h09.05.033,AFC,2024.2.4,iPhone,50,https://run.pavlovia.org/LNS/hub/,AFC,,,,,,,,,,,,,,,,,,,,150.355,150.737,150.737,151.672,2,12,22,Items_pictures/12_crisps.png,Items_pictures/22_veg_pizza.png,2,3,1,1,right,22,0.671,1,17,0,17,0,1,,,,
,,Marie-testing-againandagainandagaaaaain,fr,2026-04-21_11h09.05.033,AFC,2024.2.4,iPhone,50,https://run.pavlovia.org/LNS/hub/,AFC,,,,,,,,,,,,,,,,,,,,151.674,152.107,152.107,153.075,2,48,28,Items_pictures/48_sour_candy.png,Items_pictures/28_veg_burger.png,5,3,0,1,right,28,0.709,1,18,0,18,0,1,,,,
,,Marie-testing-againandagainandagaaaaain,fr,2026-04-21_11h09.05.033,AFC,2024.2.4,iPhone,50,https://run.pavlovia.org/LNS/hub/,AFC,,,,,,,,,,,,,,,,,,,,153.077,153.794,153.794,154.746,2,12,41,Items_pictures/12_crisps.png,Items_pictures/41_chocolate_snack.png,2,5,1,0,left,12,0.687,1,19,0,19,0,1,,,,
,,Marie-testing-againandagainandagaaaaain,fr,2026-04-21_11h09.05.033,AFC,2024.2.4,iPhone,50,https://run.pavlovia.org/LNS/hub/,AFC,,,,,,,,,,,,,,,,,,,,154.747,155.481,155.482,156.6,2,28,17,Items_pictures/28_veg_burger.png,Items_pictures/17_flips.png,3,2,1,1,left,28,0.861,1,20,0,20,0,1,,,,
,,Marie-testing-againandagainandagaaaaain,fr,2026-04-21_11h09.05.033,AFC,2024.2.4,iPhone,50,https://run.pavlovia.org/LNS/hub/,AFC,,,,,,,,,,,,,,,,,,,,156.602,157.202,157.202,158.053,2,25,57,Items_pictures/25_fries.png,Items_pictures/57_fondant.png,3,6,1,0,right,57,0.588,1,21,0,21,0,1,,,,
,,Marie-testing-againandagainandagaaaaain,fr,2026-04-21_11h09.05.033,AFC,2024.2.4,iPhone,50,https://run.pavlovia.org/LNS/hub/,AFC,,,,,,,,,,,,,,,,,,,,158.055,158.805,158.805,159.656,2,4,9,Items_pictures/4_plain_yogurt.png,Items_pictures/9_healthy_cracker.png,1,1,0,1,left,4,0.592,1,22,0,22,0,1,,,,
,,Marie-testing-againandagainandagaaaaain,fr,2026-04-21_11h09.05.033,AFC,2024.2.4,iPhone,50,https://run.pavlovia.org/LNS/hub/,AFC,,,,,,,,,,,,,,,,,,,,159.658,160.124,160.124,160.992,2,48,5,Items_pictures/48_sour_candy.png,Items_pictures/5_bell_pepper.png,5,1,0,1,left,48,0.616,1,23,0,23,0,1,,,,
,,Marie-testing-againandagainandagaaaaain,fr,2026-04-21_11h09.05.033,AFC,2024.2.4,iPhone,50,https://run.pavlovia.org/LNS/hub/,AFC,,,,,,,,,,,,,,,,,,,,160.994,161.577,161.578,162.628,2,28,30,Items_pictures/28_veg_burger.png,Items_pictures/30_onion_rings.png,3,3,1,1,left,28,0.797,1,24,0,24,0,1,,,,
,,Marie-testing-againandagainandagaaaaain,fr,2026-04-21_11h09.05.033,AFC,2024.2.4,iPhone,50,https://run.pavlovia.org/LNS/hub/,AFC,,,,,,,,,,,,,,,,,,,,162.63,163.23,163.23,164.048,2,28,22,Items_pictures/28_veg_burger.png,Items_pictures/22_veg_pizza.png,3,3,1,1,left,28,0.552,1,25,0,25,0,1,,,,
,,Marie-testing-againandagainandagaaaaain,fr,2026-04-21_11h09.05.033,AFC,2024.2.4,iPhone,50,https://run.pavlovia.org/LNS/hub/,AFC,,,,,,,,,,,,,,,,,,,,164.049,164.599,164.599,165.651,2,12,10,Items_pictures/12_crisps.png,Items_pictures/10_dried_fruits.png,2,1,1,0,left,12,0.788,1,26,0,26,0,1,,,,
,,Marie-testing-againandagainandagaaaaain,fr,2026-04-21_11h09.05.033,AFC,2024.2.4,iPhone,50,https://run.pavlovia.org/LNS/hub/,AFC,,,,,,,,,,,,,,,,,,,,165.653,166.169,166.169,167.154,2,30,47,Items_pictures/30_onion_rings.png,Items_pictures/47_gummy_candy.png,3,5,1,0,left,30,0.725,1,27,0,27,0,1,,,,
,,Marie-testing-againandagainandagaaaaain,fr,2026-04-21_11h09.05.033,AFC,2024.2.4,iPhone,50,https://run.pavlovia.org/LNS/hub/,AFC,,,,,,,,,,,,,,,,,,,,167.155,167.822,167.823,168.69,2,5,41,Items_pictures/5_bell_pepper.png,Items_pictures/41_chocolate_snack.png,1,5,1,0,right,41,0.604,1,28,0,28,0,1,,,,
,,Marie-testing-againandagainandagaaaaain,fr,2026-04-21_11h09.05.033,AFC,2024.2.4,iPhone,50,https://run.pavlovia.org/LNS/hub/,AFC,,,,,,,,,,,,,,,,,,,,168.692,169.224,169.225,170.226,2,28,57,Items_pictures/28_veg_burger.png,Items_pictures/57_fondant.png,3,6,1,0,left,28,0.744,1,29,0,29,0,1,,,,
,,Marie-testing-againandagainandagaaaaain,fr,2026-04-21_11h09.05.033,AFC,2024.2.4,iPhone,50,https://run.pavlovia.org/LNS/hub/,AFC,,,,,,,,,,,,,,,,,,,,170.228,170.894,170.894,171.879,2,15,9,Items_pictures/15_flute.png,Items_pictures/9_healthy_cracker.png,2,1,1,1,left,15,0.723,1,30,0,30,0,1,,,,
,,Marie-testing-againandagainandagaaaaain,fr,2026-04-21_11h09.05.033,AFC,2024.2.4,iPhone,50,https://run.pavlovia.org/LNS/hub/,AFC,,,,,,,,,,,,,,,,,,,,171.881,172.597,172.598,173.499,2,41,37,Items_pictures/41_chocolate_snack.png,Items_pictures/37_pain_chocolat.png,5,4,0,0,left,41,0.641,1,31,0,31,0,1,,,,
,,Marie-testing-againandagainandagaaaaain,fr,2026-04-21_11h09.05.033,AFC,2024.2.4,iPhone,50,https://run.pavlovia.org/LNS/hub/,AFC,,,,,,,,,,,,,,,,,,,,173.501,174.234,174.235,175.102,2,30,31,Items_pictures/30_onion_rings.png,Items_pictures/31_croissant.png,3,4,1,0,right,31,0.607,1,32,0,32,0,1,,,,
,,Marie-testing-againandagainandagaaaaain,fr,2026-04-21_11h09.05.033,AFC,2024.2.4,iPhone,50,https://run.pavlovia.org/LNS/hub/,AFC,,,,,,,,,,,,,,,,,,,,175.104,175.687,175.688,176.455,2,28,11,Items_pictures/28_veg_burger.png,Items_pictures/11_crisps.png,3,2,1,1,left,28,0.508,1,33,0,33,0,1,,,,
,,Marie-testing-againandagainandagaaaaain,fr,2026-04-21_11h09.05.033,AFC,2024.2.4,iPhone,50,https://run.pavlovia.org/LNS/hub/,AFC,,,,,,,,,,,,,,,,,,,,176.457,176.923,176.923,177.758,2,37,28,Items_pictures/37_pain_chocolat.png,Items_pictures/28_veg_burger.png,4,3,0,1,right,28,0.575,1,34,0,34,0,1,,,,
,,Marie-testing-againandagainandagaaaaain,fr,2026-04-21_11h09.05.033,AFC,2024.2.4,iPhone,50,https://run.pavlovia.org/LNS/hub/,AFC,,,,,,,,,,,,,,,,,,,,177.759,178.376,178.376,179.261,2,59,47,Items_pictures/59_cheesecake.png,Items_pictures/47_gummy_candy.png,6,5,0,0,left,59,0.626,1,35,0,35,0,1,,,,
,,Marie-testing-againandagainandagaaaaain,fr,2026-04-21_11h09.05.033,AFC,2024.2.4,iPhone,50,https://run.pavlovia.org/LNS/hub/,AFC,,,,,,,,,,,,,,,,,,,,179.262,179.729,179.729,180.781,2,57,12,Items_pictures/57_fondant.png,Items_pictures/12_crisps.png,6,2,0,1,left,57,0.792,1,36,0,36,0,1,,,,
,,Marie-testing-againandagainandagaaaaain,fr,2026-04-21_11h09.05.033,AFC,2024.2.4,iPhone,50,https://run.pavlovia.org/LNS/hub/,AFC,,,,,,,,,,,,,,,,,,,,180.782,181.298,181.299,182.2,2,25,5,Items_pictures/25_fries.png,Items_pictures/5_bell_pepper.png,3,1,1,1,left,25,0.642,1,37,0,37,0,1,,,,
,,Marie-testing-againandagainandagaaaaain,fr,2026-04-21_11h09.05.033,AFC,2024.2.4,iPhone,50,https://run.pavlovia.org/LNS/hub/,AFC,,,,,,,,,,,,,,,,,,,,182.201,182.785,182.785,183.653,2,9,54,Items_pictures/9_healthy_cracker.png,Items_pictures/54_ice_cream.png,1,6,1,0,right,54,0.609,1,38,0,38,0,1,,,,
,,Marie-testing-againandagainandagaaaaain,fr,2026-04-21_11h09.05.033,AFC,2024.2.4,iPhone,50,https://run.pavlovia.org/LNS/hub/,AFC,,,,,,,,,,,,,,,,,,,,183.654,184.338,184.338,185.206,2,10,49,Items_pictures/10_dried_fruits.png,Items_pictures/49_chocolate_cookie.png,1,5,0,0,left,10,0.606,1,39,0,39,0,1,,,,
,,Marie-testing-againandagainandagaaaaain,fr,2026-04-21_11h09.05.033,AFC,2024.2.4,iPhone,50,https://run.pavlovia.org/LNS/hub/,AFC,,,,,,,,,,,,,,,,,,,,185.207,185.741,185.741,186.592,2,47,4,Items_pictures/47_gummy_candy.png,Items_pictures/4_plain_yogurt.png,5,1,0,0,left,47,0.587,1,40,0,40,0,1,,,,
,,Marie-testing-againandagainandagaaaaain,fr,2026-04-21_11h09.05.033,AFC,2024.2.4,iPhone,50,https://run.pavlovia.org/LNS/hub/,AFC,,,,,,,,,,,,,,,,,,,,186.593,187.377,187.377,188.195,2,40,31,Items_pictures/40_tresse.png,Items_pictures/31_croissant.png,4,4,0,0,right,31,0.558,1,41,0,41,0,1,,,,
,,Marie-testing-againandagainandagaaaaain,fr,2026-04-21_11h09.05.033,AFC,2024.2.4,iPhone,50,https://run.pavlovia.org/LNS/hub/,AFC,,,,,,,,,,,,,,,,,,,,188.196,188.93,188.93,189.882,2,51,22,Items_pictures/51_tiramisu.png,Items_pictures/22_veg_pizza.png,6,3,0,1,left,51,0.687,1,42,0,42,0,1,,,,
,,Marie-testing-againandagainandagaaaaain,fr,2026-04-21_11h09.05.033,AFC,2024.2.4,iPhone,50,https://run.pavlovia.org/LNS/hub/,AFC,,,,,,,,,,,,,,,,,,,,189.884,190.566,190.567,191.385,2,22,9,Items_pictures/22_veg_pizza.png,Items_pictures/9_healthy_cracker.png,3,1,1,1,left,22,0.559,1,43,0,43,0,1,,,,
,,Marie-testing-againandagainandagaaaaain,fr,2026-04-21_11h09.05.033,AFC,2024.2.4,iPhone,50,https://run.pavlovia.org/LNS/hub/,AFC,,,,,,,,,,,,,,,,,,,,191.387,192.12,192.12,193.122,2,37,17,Items_pictures/37_pain_chocolat.png,Items_pictures/17_flips.png,4,2,0,1,right,17,0.738,1,44,0,44,0,1,,,,
,,Marie-testing-againandagainandagaaaaain,fr,2026-04-21_11h09.05.033,AFC,2024.2.4,iPhone,50,https://run.pavlovia.org/LNS/hub/,AFC,,,,,,,,,,,,,,,,,,,,193.123,193.689,193.69,194.742,2,15,48,Items_pictures/15_flute.png,Items_pictures/48_sour_candy.png,2,5,1,0,left,15,0.788,1,45,0,45,0,1,,,,
,,Marie-testing-againandagainandagaaaaain,fr,2026-04-21_11h09.05.033,AFC,2024.2.4,iPhone,50,https://run.pavlovia.org/LNS/hub/,AFC,,,,,,,,,,,,,,,,,,,,194.744,195.526,195.527,196.378,2,47,12,Items_pictures/47_gummy_candy.png,Items_pictures/12_crisps.png,5,2,0,1,left,47,0.587,1,46,0,46,0,1,,,,
,,Marie-testing-againandagainandagaaaaain,fr,2026-04-21_11h09.05.033,AFC,2024.2.4,iPhone,50,https://run.pavlovia.org/LNS/hub/,AFC,,,,,,,,,,,,,,,,,,,,196.38,196.696,196.696,197.664,2,4,41,Items_pictures/4_plain_yogurt.png,Items_pictures/41_chocolate_snack.png,1,5,0,0,right,41,0.71,1,47,0,47,0,1,,,,
,,Marie-testing-againandagainandagaaaaain,fr,2026-04-21_11h09.05.033,AFC,2024.2.4,iPhone,50,https://run.pavlovia.org/LNS/hub/,AFC,,,,,,,,,,,,,,,,,,,,197.665,198.232,198.232,199.167,2,9,40,Items_pictures/9_healthy_cracker.png,Items_pictures/40_tresse.png,1,4,1,0,right,40,0.671,1,48,0,48,0,1,,,,
,,Marie-testing-againandagainandagaaaaain,fr,2026-04-21_11h09.05.033,AFC,2024.2.4,iPhone,50,https://run.pavlovia.org/LNS/hub/,AFC,,,,,,,,,,,,,,,,,,,,199.169,199.835,199.836,200.72,2,47,57,Items_pictures/47_gummy_candy.png,Items_pictures/57_fondant.png,5,6,0,0,right,57,0.633,1,49,0,49,0,1,,,,
,,Marie-testing-againandagainandagaaaaain,fr,2026-04-21_11h09.05.033,AFC,2024.2.4,iPhone,50,https://run.pavlovia.org/LNS/hub/,AFC,,,,,,,,,,,,,,,,,,,,200.722,201.138,201.138,202.256,2,10,9,Items_pictures/10_dried_fruits.png,Items_pictures/9_healthy_cracker.png,1,1,0,1,right,9,0.859,1,50,0,50,0,1,,,,
,,Marie-testing-againandagainandagaaaaain,fr,2026-04-21_11h09.05.033,AFC,2024.2.4,iPhone,50,https://run.pavlovia.org/LNS/hub/,AFC,,,,,,,,,,,,,,,,,,,,202.258,202.591,202.591,203.843,2,59,35,Items_pictures/59_cheesecake.png,Items_pictures/35_focaccia.png,6,4,0,1,right,35,0.986,1,51,0,51,0,1,,,,
,,Marie-testing-againandagainandagaaaaain,fr,2026-04-21_11h09.05.033,AFC,2024.2.4,iPhone,50,https://run.pavlovia.org/LNS/hub/,AFC,,,,,,,,,,,,,,,,,,,,203.844,204.394,204.394,205.312,2,57,11,Items_pictures/57_fondant.png,Items_pictures/11_crisps.png,6,2,0,1,left,57,0.655,1,52,0,52,0,1,,,,
,,Marie-testing-againandagainandagaaaaain,fr,2026-04-21_11h09.05.033,AFC,2024.2.4,iPhone,50,https://run.pavlovia.org/LNS/hub/,AFC,,,,,,,,,,,,,,,,,,,,205.314,205.796,205.797,206.698,2,51,15,Items_pictures/51_tiramisu.png,Items_pictures/15_flute.png,6,2,0,1,left,51,0.637,1,53,0,53,0,1,,,,
,,Marie-testing-againandagainandagaaaaain,fr,2026-04-21_11h09.05.033,AFC,2024.2.4,iPhone,50,https://run.pavlovia.org/LNS/hub/,AFC,,,,,,,,,,,,,,,,,,,,206.699,207.449,207.45,208.384,2,47,28,Items_pictures/47_gummy_candy.png,Items_pictures/28_veg_burger.png,5,3,0,1,right,28,0.675,1,54,0,54,0,1,,,,
,,Marie-testing-againandagainandagaaaaain,fr,2026-04-21_11h09.05.033,AFC,2024.2.4,iPhone,50,https://run.pavlovia.org/LNS/hub/,AFC,,,,,,,,,,,,,,,,,,,,208.386,208.902,208.903,209.904,2,59,12,Items_pictures/59_cheesecake.png,Items_pictures/12_crisps.png,6,2,0,1,none,none,,0,55,0,55,0,1,,,,
,,Marie-testing-againandagainandagaaaaain,fr,2026-04-21_11h09.05.033,AFC,2024.2.4,iPhone,50,https://run.pavlovia.org/LNS/hub/,AFC,,,,,,,,,,,,,,,,,,,,210.155,210.572,210.572,211.423,2,25,4,Items_pictures/25_fries.png,Items_pictures/4_plain_yogurt.png,3,1,1,0,left,25,0.588,1,56,0,56,0,1,,,,
,,Marie-testing-againandagainandagaaaaain,fr,2026-04-21_11h09.05.033,AFC,2024.2.4,iPhone,50,https://run.pavlovia.org/LNS/hub/,AFC,,,,,,,,,,,,,,,,,,,,211.425,212.158,212.158,212.859,2,54,17,Items_pictures/54_ice_cream.png,Items_pictures/17_flips.png,6,2,0,1,right,17,0.437,1,57,0,57,0,1,,,,
,,Marie-testing-againandagainandagaaaaain,fr,2026-04-21_11h09.05.033,AFC,2024.2.4,iPhone,50,https://run.pavlovia.org/LNS/hub/,AFC,,,,,,,,,,,,,,,,,,,,212.861,213.544,213.544,214.579,2,51,30,Items_pictures/51_tiramisu.png,Items_pictures/30_onion_rings.png,6,3,0,1,left,51,0.776,1,58,0,58,0,1,,,,
,,Marie-testing-againandagainandagaaaaain,fr,2026-04-21_11h09.05.033,AFC,2024.2.4,iPhone,50,https://run.pavlovia.org/LNS/hub/,AFC,,,,,,,,,,,,,,,,,,,,214.581,215.047,215.047,215.932,2,48,9,Items_pictures/48_sour_candy.png,Items_pictures/9_healthy_cracker.png,5,1,0,1,left,48,0.621,1,59,0,59,0,1,,,,
,,Marie-testing-againandagainandagaaaaain,fr,2026-04-21_11h09.05.033,AFC,2024.2.4,iPhone,50,https://run.pavlovia.org/LNS/hub/,AFC,,,,,,,,,,,,,,,,,,,,215.933,216.649,216.65,217.434,2,54,11,Items_pictures/54_ice_cream.png,Items_pictures/11_crisps.png,6,2,0,1,right,11,0.525,1,60,0,60,0,1,,,,
,,Marie-testing-againandagainandagaaaaain,fr,2026-04-21_11h09.05.033,AFC,2024.2.4,iPhone,50,https://run.pavlovia.org/LNS/hub/,AFC,,,,,,,,,,,,,,,,,,,,217.436,218.202,218.202,219.087,2,12,4,Items_pictures/12_crisps.png,Items_pictures/4_plain_yogurt.png,2,1,1,0,left,12,0.621,1,61,0,61,0,1,,,,
,,Marie-testing-againandagainandagaaaaain,fr,2026-04-21_11h09.05.033,AFC,2024.2.4,iPhone,50,https://run.pavlovia.org/LNS/hub/,AFC,,,,,,,,,,,,,,,,,,,,219.089,219.504,219.505,220.473,2,49,22,Items_pictures/49_chocolate_cookie.png,Items_pictures/22_veg_pizza.png,5,3,0,1,right,22,0.708,1,62,0,62,0,1,,,,
,,Marie-testing-againandagainandagaaaaain,fr,2026-04-21_11h09.05.033,AFC,2024.2.4,iPhone,50,https://run.pavlovia.org/LNS/hub/,AFC,,,,,,,,,,,,,,,,,,,,220.474,221.275,221.275,222.109,2,54,51,Items_pictures/54_ice_cream.png,Items_pictures/51_tiramisu.png,6,6,0,0,left,54,0.571,1,63,0,63,0,1,,,,
,,Marie-testing-againandagainandagaaaaain,fr,2026-04-21_11h09.05.033,AFC,2024.2.4,iPhone,50,https://run.pavlovia.org/LNS/hub/,AFC,,,,,,,,,,,,,,,,,,,,222.111,222.644,222.644,223.695,2,10,15,Items_pictures/10_dried_fruits.png,Items_pictures/15_flute.png,1,2,0,1,left,10,0.788,1,64,0,64,0,1,,,,
,,Marie-testing-againandagainandagaaaaain,fr,2026-04-21_11h09.05.033,AFC,2024.2.4,iPhone,50,https://run.pavlovia.org/LNS/hub/,AFC,,,,,,,,,,,,,,,,,,,,223.697,224.431,224.431,225.466,2,54,35,Items_pictures/54_ice_cream.png,Items_pictures/35_focaccia.png,6,4,0,1,right,35,0.775,1,65,0,65,0,1,,,,
,,Marie-testing-againandagainandagaaaaain,fr,2026-04-21_11h09.05.033,AFC,2024.2.4,iPhone,50,https://run.pavlovia.org/LNS/hub/,AFC,,,,,,,,,,,,,,,,,,,,225.467,226.151,226.151,226.885,2,47,49,Items_pictures/47_gummy_candy.png,Items_pictures/49_chocolate_cookie.png,5,5,0,0,left,47,0.477,1,66,0,66,0,1,,,,
,,Marie-testing-againandagainandagaaaaain,fr,2026-04-21_11h09.05.033,AFC,2024.2.4,iPhone,50,https://run.pavlovia.org/LNS/hub/,AFC,,,,,,,,,,,,,,,,,,,,226.887,227.503,227.504,228.488,2,30,22,Items_pictures/30_onion_rings.png,Items_pictures/22_veg_pizza.png,3,3,1,1,right,22,0.721,1,67,0,67,0,1,,,,
,,Marie-testing-againandagainandagaaaaain,fr,2026-04-21_11h09.05.033,AFC,2024.2.4,iPhone,50,https://run.pavlovia.org/LNS/hub/,AFC,,,,,,,,,,,,,,,,,,,,228.49,229.24,229.241,230.091,2,57,17,Items_pictures/57_fondant.png,Items_pictures/17_flips.png,6,2,0,1,left,57,0.59,1,68,0,68,0,1,,,,
,,Marie-testing-againandagainandagaaaaain,fr,2026-04-21_11h09.05.033,AFC,2024.2.4,iPhone,50,https://run.pavlovia.org/LNS/hub/,AFC,,,,,,,,,,,,,,,,,,231.371,231.986,232.683,233.114,233.114,233.982,3,59,11,Items_pictures/59_cheesecake.png,Items_pictures/11_crisps.png,6,2,0,1,right,11,0.604,1,0,0,0,0,1,230.093,231.371,,
,,Marie-testing-againandagainandagaaaaain,fr,2026-04-21_11h09.05.033,AFC,2024.2.4,iPhone,50,https://run.pavlovia.org/LNS/hub/,AFC,,,,,,,,,,,,,,,,,,,,233.984,234.417,234.417,235.251,3,35,22,Items_pictures/35_focaccia.png,Items_pictures/22_veg_pizza.png,4,3,1,1,right,22,0.57,1,1,0,1,0,1,,,,
,,Marie-testing-againandagainandagaaaaain,fr,2026-04-21_11h09.05.033,AFC,2024.2.4,iPhone,50,https://run.pavlovia.org/LNS/hub/,AFC,,,,,,,,,,,,,,,,,,,,235.253,235.619,235.619,236.587,3,49,37,Items_pictures/49_chocolate_cookie.png,Items_pictures/37_pain_chocolat.png,5,4,0,0,left,49,0.702,1,2,0,2,0,1,,,,
,,Marie-testing-againandagainandagaaaaain,fr,2026-04-21_11h09.05.033,AFC,2024.2.4,iPhone,50,https://run.pavlovia.org/LNS/hub/,AFC,,,,,,,,,,,,,,,,,,,,236.589,236.905,236.906,237.923,3,9,25,Items_pictures/9_healthy_cracker.png,Items_pictures/25_fries.png,1,3,1,1,right,25,0.753,1,3,0,3,0,1,,,,
,,Marie-testing-againandagainandagaaaaain,fr,2026-04-21_11h09.05.033,AFC,2024.2.4,iPhone,50,https://run.pavlovia.org/LNS/hub/,AFC,,,,,,,,,,,,,,,,,,,,237.924,238.491,238.491,239.626,3,10,35,Items_pictures/10_dried_fruits.png,Items_pictures/35_focaccia.png,1,4,0,1,right,35,0.876,1,4,0,4,0,1,,,,
,,Marie-testing-againandagainandagaaaaain,fr,2026-04-21_11h09.05.033,AFC,2024.2.4,iPhone,50,https://run.pavlovia.org/LNS/hub/,AFC,,,,,,,,,,,,,,,,,,,,239.628,240.116,240.116,241.129,3,22,15,Items_pictures/22_veg_pizza.png,Items_pictures/15_flute.png,3,2,1,1,left,22,0.754,1,5,0,5,0,1,,,,
,,Marie-testing-againandagainandagaaaaain,fr,2026-04-21_11h09.05.033,AFC,2024.2.4,iPhone,50,https://run.pavlovia.org/LNS/hub/,AFC,,,,,,,,,,,,,,,,,,,,241.131,241.897,241.898,242.748,3,10,54,Items_pictures/10_dried_fruits.png,Items_pictures/54_ice_cream.png,1,6,0,0,right,54,0.588,1,6,0,6,0,1,,,,
,,Marie-testing-againandagainandagaaaaain,fr,2026-04-21_11h09.05.033,AFC,2024.2.4,iPhone,50,https://run.pavlovia.org/LNS/hub/,AFC,,,,,,,,,,,,,,,,,,,,242.75,243.45,243.451,244.452,3,40,35,Items_pictures/40_tresse.png,Items_pictures/35_focaccia.png,4,4,0,1,right,35,0.742,1,7,0,7,0,1,,,,
,,Marie-testing-againandagainandagaaaaain,fr,2026-04-21_11h09.05.033,AFC,2024.2.4,iPhone,50,https://run.pavlovia.org/LNS/hub/,AFC,,,,,,,,,,,,,,,,,,,,244.453,245.003,245.003,245.854,3,4,5,Items_pictures/4_plain_yogurt.png,Items_pictures/5_bell_pepper.png,1,1,0,1,right,5,0.589,1,8,0,8,0,1,,,,
,,Marie-testing-againandagainandagaaaaain,fr,2026-04-21_11h09.05.033,AFC,2024.2.4,iPhone,50,https://run.pavlovia.org/LNS/hub/,AFC,,,,,,,,,,,,,,,,,,,,245.856,246.188,246.189,247.19,3,57,31,Items_pictures/57_fondant.png,Items_pictures/31_croissant.png,6,4,0,0,left,57,0.743,1,9,0,9,0,1,,,,
,,Marie-testing-againandagainandagaaaaain,fr,2026-04-21_11h09.05.033,AFC,2024.2.4,iPhone,50,https://run.pavlovia.org/LNS/hub/,AFC,,,,,,,,,,,,,,,,,,,,247.192,247.658,247.658,248.693,3,17,15,Items_pictures/17_flips.png,Items_pictures/15_flute.png,2,2,1,1,left,17,0.772,1,10,0,10,0,1,,,,
,,Marie-testing-againandagainandagaaaaain,fr,2026-04-21_11h09.05.033,AFC,2024.2.4,iPhone,50,https://run.pavlovia.org/LNS/hub/,AFC,,,,,,,,,,,,,,,,,,,,248.695,249.361,249.361,250.212,3,15,31,Items_pictures/15_flute.png,Items_pictures/31_croissant.png,2,4,1,0,right,31,0.592,1,11,0,11,0,1,,,,
,,Marie-testing-againandagainandagaaaaain,fr,2026-04-21_11h09.05.033,AFC,2024.2.4,iPhone,50,https://run.pavlovia.org/LNS/hub/,AFC,,,,,,,,,,,,,,,,,,,,250.214,250.98,250.981,251.882,3,54,15,Items_pictures/54_ice_cream.png,Items_pictures/15_flute.png,6,2,0,1,left,54,0.643,1,12,0,12,0,1,,,,
,,Marie-testing-againandagainandagaaaaain,fr,2026-04-21_11h09.05.033,AFC,2024.2.4,iPhone,50,https://run.pavlovia.org/LNS/hub/,AFC,,,,,,,,,,,,,,,,,,,,251.884,252.25,252.25,253.168,3,54,31,Items_pictures/54_ice_cream.png,Items_pictures/31_croissant.png,6,4,0,0,left,54,0.653,1,13,0,13,0,1,,,,
,,Marie-testing-againandagainandagaaaaain,fr,2026-04-21_11h09.05.033,AFC,2024.2.4,iPhone,50,https://run.pavlovia.org/LNS/hub/,AFC,,,,,,,,,,,,,,,,,,,,253.17,253.636,253.636,254.521,3,4,49,Items_pictures/4_plain_yogurt.png,Items_pictures/49_chocolate_cookie.png,1,5,0,0,right,49,0.62,1,14,0,14,0,1,,,,
,,Marie-testing-againandagainandagaaaaain,fr,2026-04-21_11h09.05.033,AFC,2024.2.4,iPhone,50,https://run.pavlovia.org/LNS/hub/,AFC,,,,,,,,,,,,,,,,,,,,254.523,254.939,254.939,255.757,3,49,11,Items_pictures/49_chocolate_cookie.png,Items_pictures/11_crisps.png,5,2,0,1,left,49,0.559,1,15,0,15,0,1,,,,
,,Marie-testing-againandagainandagaaaaain,fr,2026-04-21_11h09.05.033,AFC,2024.2.4,iPhone,50,https://run.pavlovia.org/LNS/hub/,AFC,,,,,,,,,,,,,,,,,,,,255.759,256.308,256.309,257.193,3,49,28,Items_pictures/49_chocolate_cookie.png,Items_pictures/28_veg_burger.png,5,3,0,1,left,49,0.62,1,16,0,16,0,1,,,,
,,Marie-testing-againandagainandagaaaaain,fr,2026-04-21_11h09.05.033,AFC,2024.2.4,iPhone,50,https://run.pavlovia.org/LNS/hub/,AFC,,,,,,,,,,,,,,,,,,,,257.195,257.745,257.745,258.563,3,31,28,Items_pictures/31_croissant.png,Items_pictures/28_veg_burger.png,4,3,0,1,right,28,0.555,1,17,0,17,0,1,,,,
,,Marie-testing-againandagainandagaaaaain,fr,2026-04-21_11h09.05.033,AFC,2024.2.4,iPhone,50,https://run.pavlovia.org/LNS/hub/,AFC,,,,,,,,,,,,,,,,,,,,258.565,258.948,258.948,259.816,3,49,12,Items_pictures/49_chocolate_cookie.png,Items_pictures/12_crisps.png,5,2,0,1,left,49,0.604,1,18,0,18,0,1,,,,
,,Marie-testing-againandagainandagaaaaain,fr,2026-04-21_11h09.05.033,AFC,2024.2.4,iPhone,50,https://run.pavlovia.org/LNS/hub/,AFC,,,,,,,,,,,,,,,,,,,,259.817,260.183,260.184,261.085,3,9,41,Items_pictures/9_healthy_cracker.png,Items_pictures/41_chocolate_snack.png,1,5,1,0,right,41,0.636,1,19,0,19,0,1,,,,
,,Marie-testing-againandagainandagaaaaain,fr,2026-04-21_11h09.05.033,AFC,2024.2.4,iPhone,50,https://run.pavlovia.org/LNS/hub/,AFC,,,,,,,,,,,,,,,,,,,,261.086,261.787,261.787,262.788,3,25,37,Items_pictures/25_fries.png,Items_pictures/37_pain_chocolat.png,3,4,1,0,right,37,0.743,1,20,0,20,0,1,,,,
,,Marie-testing-againandagainandagaaaaain,fr,2026-04-21_11h09.05.033,AFC,2024.2.4,iPhone,50,https://run.pavlovia.org/LNS/hub/,AFC,,,,,,,,,,,,,,,,,,,,262.79,263.089,263.089,264.126,3,57,51,Items_pictures/57_fondant.png,Items_pictures/51_tiramisu.png,6,6,0,0,left,57,0.782,1,21,0,21,0,1,,,,
,,Marie-testing-againandagainandagaaaaain,fr,2026-04-21_11h09.05.033,AFC,2024.2.4,iPhone,50,https://run.pavlovia.org/LNS/hub/,AFC,,,,,,,,,,,,,,,,,,,,264.127,264.509,264.509,265.51,3,49,25,Items_pictures/49_chocolate_cookie.png,Items_pictures/25_fries.png,5,3,0,1,left,49,0.742,1,22,0,22,0,1,,,,
,,Marie-testing-againandagainandagaaaaain,fr,2026-04-21_11h09.05.033,AFC,2024.2.4,iPhone,50,https://run.pavlovia.org/LNS/hub/,AFC,,,,,,,,,,,,,,,,,,,,265.512,266.262,266.263,267.147,3,17,31,Items_pictures/17_flips.png,Items_pictures/31_croissant.png,2,4,1,0,right,31,0.626,1,23,0,23,0,1,,,,
,,Marie-testing-againandagainandagaaaaain,fr,2026-04-21_11h09.05.033,AFC,2024.2.4,iPhone,50,https://run.pavlovia.org/LNS/hub/,AFC,,,,,,,,,,,,,,,,,,,,267.149,267.632,267.632,268.449,3,47,25,Items_pictures/47_gummy_candy.png,Items_pictures/25_fries.png,5,3,0,1,left,47,0.551,1,24,0,24,0,1,,,,
,,Marie-testing-againandagainandagaaaaain,fr,2026-04-21_11h09.05.033,AFC,2024.2.4,iPhone,50,https://run.pavlovia.org/LNS/hub/,AFC,,,,,,,,,,,,,,,,,,,,268.451,269.151,269.152,270.052,3,59,49,Items_pictures/59_cheesecake.png,Items_pictures/49_chocolate_cookie.png,6,5,0,0,right,49,0.643,1,25,0,25,0,1,,,,
,,Marie-testing-againandagainandagaaaaain,fr,2026-04-21_11h09.05.033,AFC,2024.2.4,iPhone,50,https://run.pavlovia.org/LNS/hub/,AFC,,,,,,,,,,,,,,,,,,,,270.054,270.505,270.505,271.523,3,28,9,Items_pictures/28_veg_burger.png,Items_pictures/9_healthy_cracker.png,3,1,1,1,left,28,0.759,1,26,0,26,0,1,,,,
,,Marie-testing-againandagainandagaaaaain,fr,2026-04-21_11h09.05.033,AFC,2024.2.4,iPhone,50,https://run.pavlovia.org/LNS/hub/,AFC,,,,,,,,,,,,,,,,,,,,271.525,272.323,272.324,273.358,3,12,35,Items_pictures/12_crisps.png,Items_pictures/35_focaccia.png,2,4,1,1,right,35,0.772,1,27,0,27,0,1,,,,
,,Marie-testing-againandagainandagaaaaain,fr,2026-04-21_11h09.05.033,AFC,2024.2.4,iPhone,50,https://run.pavlovia.org/LNS/hub/,AFC,,,,,,,,,,,,,,,,,,,,273.36,273.776,273.777,274.744,3,9,47,Items_pictures/9_healthy_cracker.png,Items_pictures/47_gummy_candy.png,1,5,1,0,right,47,0.704,1,28,0,28,0,1,,,,
,,Marie-testing-againandagainandagaaaaain,fr,2026-04-21_11h09.05.033,AFC,2024.2.4,iPhone,50,https://run.pavlovia.org/LNS/hub/,AFC,,,,,,,,,,,,,,,,,,,,274.746,275.429,275.43,276.564,3,11,10,Items_pictures/11_crisps.png,Items_pictures/10_dried_fruits.png,2,1,1,0,left,11,0.875,1,29,0,29,0,1,,,,
,,Marie-testing-againandagainandagaaaaain,fr,2026-04-21_11h09.05.033,AFC,2024.2.4,iPhone,50,https://run.pavlovia.org/LNS/hub/,AFC,,,,,,,,,,,,,,,,,,,,276.566,277.166,277.166,278.167,3,57,9,Items_pictures/57_fondant.png,Items_pictures/9_healthy_cracker.png,6,1,0,1,left,57,0.737,1,30,0,30,0,1,,,,
,,Marie-testing-againandagainandagaaaaain,fr,2026-04-21_11h09.05.033,AFC,2024.2.4,iPhone,50,https://run.pavlovia.org/LNS/hub/,AFC,,,,,,,,,,,,,,,,,,,,278.169,278.736,278.736,279.72,3,37,40,Items_pictures/37_pain_chocolat.png,Items_pictures/40_tresse.png,4,4,0,0,right,40,0.728,1,31,0,31,0,1,,,,
,,Marie-testing-againandagainandagaaaaain,fr,2026-04-21_11h09.05.033,AFC,2024.2.4,iPhone,50,https://run.pavlovia.org/LNS/hub/,AFC,,,,,,,,,,,,,,,,,,,,279.722,280.155,280.155,281.089,3,40,10,Items_pictures/40_tresse.png,Items_pictures/10_dried_fruits.png,4,1,0,0,left,40,0.675,1,32,0,32,0,1,,,,
,,Marie-testing-againandagainandagaaaaain,fr,2026-04-21_11h09.05.033,AFC,2024.2.4,iPhone,50,https://run.pavlovia.org/LNS/hub/,AFC,,,,,,,,,,,,,,,,,,,,281.091,281.641,281.641,282.492,3,30,35,Items_pictures/30_onion_rings.png,Items_pictures/35_focaccia.png,3,4,1,1,right,35,0.589,1,33,0,33,0,1,,,,
,,Marie-testing-againandagainandagaaaaain,fr,2026-04-21_11h09.05.033,AFC,2024.2.4,iPhone,50,https://run.pavlovia.org/LNS/hub/,AFC,,,,,,,,,,,,,,,,,,,,282.494,283.111,283.112,284.079,3,48,49,Items_pictures/48_sour_candy.png,Items_pictures/49_chocolate_cookie.png,5,5,0,0,right,49,0.707,1,34,0,34,0,1,,,,
,,Marie-testing-againandagainandagaaaaain,fr,2026-04-21_11h09.05.033,AFC,2024.2.4,iPhone,50,https://run.pavlovia.org/LNS/hub/,AFC,,,,,,,,,,,,,,,,,,,,284.081,284.447,284.447,285.415,3,40,49,Items_pictures/40_tresse.png,Items_pictures/49_chocolate_cookie.png,4,5,0,0,right,49,0.704,1,35,0,35,0,1,,,,
,,Marie-testing-againandagainandagaaaaain,fr,2026-04-21_11h09.05.033,AFC,2024.2.4,iPhone,50,https://run.pavlovia.org/LNS/hub/,AFC,,,,,,,,,,,,,,,,,,,,285.417,286.084,286.084,286.902,3,59,22,Items_pictures/59_cheesecake.png,Items_pictures/22_veg_pizza.png,6,3,0,1,right,22,0.558,1,36,0,36,0,1,,,,
,,Marie-testing-againandagainandagaaaaain,fr,2026-04-21_11h09.05.033,AFC,2024.2.4,iPhone,50,https://run.pavlovia.org/LNS/hub/,AFC,,,,,,,,,,,,,,,,,,,,286.904,287.453,287.454,288.505,3,48,37,Items_pictures/48_sour_candy.png,Items_pictures/37_pain_chocolat.png,5,4,0,0,left,48,0.789,1,37,0,37,0,1,,,,
,,Marie-testing-againandagainandagaaaaain,fr,2026-04-21_11h09.05.033,AFC,2024.2.4,iPhone,50,https://run.pavlovia.org/LNS/hub/,AFC,,,,,,,,,,,,,,,,,,,,288.507,288.906,288.907,290.125,3,35,48,Items_pictures/35_focaccia.png,Items_pictures/48_sour_candy.png,4,5,1,0,right,48,0.958,1,38,0,38,0,1,,,,
,,Marie-testing-againandagainandagaaaaain,fr,2026-04-21_11h09.05.033,AFC,2024.2.4,iPhone,50,https://run.pavlovia.org/LNS/hub/,AFC,,,,,,,,,,,,,,,,,,,,290.127,290.794,290.794,291.695,3,5,40,Items_pictures/5_bell_pepper.png,Items_pictures/40_tresse.png,1,4,1,0,right,40,0.642,1,39,0,39,0,1,,,,
,,Marie-testing-againandagainandagaaaaain,fr,2026-04-21_11h09.05.033,AFC,2024.2.4,iPhone,50,https://run.pavlovia.org/LNS/hub/,AFC,,,,,,,,,,,,,,,,,,,,291.697,292.046,292.046,293.115,3,51,25,Items_pictures/51_tiramisu.png,Items_pictures/25_fries.png,6,3,0,1,right,25,0.805,1,40,0,40,0,1,,,,
,,Marie-testing-againandagainandagaaaaain,fr,2026-04-21_11h09.05.033,AFC,2024.2.4,iPhone,50,https://run.pavlovia.org/LNS/hub/,AFC,,,,,,,,,,,,,,,,,,,,293.116,293.549,293.55,294.501,3,15,57,Items_pictures/15_flute.png,Items_pictures/57_fondant.png,2,6,1,0,right,57,0.692,1,41,0,41,0,1,,,,
,,Marie-testing-againandagainandagaaaaain,fr,2026-04-21_11h09.05.033,AFC,2024.2.4,iPhone,50,https://run.pavlovia.org/LNS/hub/,AFC,,,,,,,,,,,,,,,,,,,,294.502,294.985,294.985,296.02,3,5,35,Items_pictures/5_bell_pepper.png,Items_pictures/35_focaccia.png,1,4,1,1,right,35,0.775,1,42,0,42,0,1,,,,
,,Marie-testing-againandagainandagaaaaain,fr,2026-04-21_11h09.05.033,AFC,2024.2.4,iPhone,50,https://run.pavlovia.org/LNS/hub/,AFC,,,,,,,,,,,,,,,,,,,,296.022,296.705,296.705,297.59,3,51,49,Items_pictures/51_tiramisu.png,Items_pictures/49_chocolate_cookie.png,6,5,0,0,left,51,0.625,1,43,0,43,0,1,,,,
,,Marie-testing-againandagainandagaaaaain,fr,2026-04-21_11h09.05.033,AFC,2024.2.4,iPhone,50,https://run.pavlovia.org/LNS/hub/,AFC,,,,,,,,,,,,,,,,,,,,297.591,298.358,298.359,299.26,3,54,25,Items_pictures/54_ice_cream.png,Items_pictures/25_fries.png,6,3,0,1,right,25,0.643,1,44,0,44,0,1,,,,
,,Marie-testing-againandagainandagaaaaain,fr,2026-04-21_11h09.05.033,AFC,2024.2.4,iPhone,50,https://run.pavlovia.org/LNS/hub/,AFC,,,,,,,,,,,,,,,,,,,,299.261,299.945,299.945,300.996,3,11,17,Items_pictures/11_crisps.png,Items_pictures/17_flips.png,2,2,1,1,right,17,0.788,1,45,0,45,0,1,,,,
,,Marie-testing-againandagainandagaaaaain,fr,2026-04-21_11h09.05.033,AFC,2024.2.4,iPhone,50,https://run.pavlovia.org/LNS/hub/,AFC,,,,,,,,,,,,,,,,,,,,300.998,301.381,301.381,302.432,3,47,5,Items_pictures/47_gummy_candy.png,Items_pictures/5_bell_pepper.png,5,1,0,1,right,5,0.787,1,46,0,46,0,1,,,,
,,Marie-testing-againandagainandagaaaaain,fr,2026-04-21_11h09.05.033,AFC,2024.2.4,iPhone,50,https://run.pavlovia.org/LNS/hub/,AFC,,,,,,,,,,,,,,,,,,,,302.434,302.967,302.968,303.918,3,28,15,Items_pictures/28_veg_burger.png,Items_pictures/15_flute.png,3,2,1,1,left,28,0.692,1,47,0,47,0,1,,,,
,,Marie-testing-againandagainandagaaaaain,fr,2026-04-21_11h09.05.033,AFC,2024.2.4,iPhone,50,https://run.pavlovia.org/LNS/hub/,AFC,,,,,,,,,,,,,,,,,,,,303.92,304.486,304.486,305.388,3,11,4,Items_pictures/11_crisps.png,Items_pictures/4_plain_yogurt.png,2,1,1,0,left,11,0.643,1,48,0,48,0,1,,,,
,,Marie-testing-againandagainandagaaaaain,fr,2026-04-21_11h09.05.033,AFC,2024.2.4,iPhone,50,https://run.pavlovia.org/LNS/hub/,AFC,,,,,,,,,,,,,,,,,,,,305.39,306.173,306.173,306.974,3,4,17,Items_pictures/4_plain_yogurt.png,Items_pictures/17_flips.png,1,2,0,1,right,17,0.535,1,49,0,49,0,1,,,,
,,Marie-testing-againandagainandagaaaaain,fr,2026-04-21_11h09.05.033,AFC,2024.2.4,iPhone,50,https://run.pavlovia.org/LNS/hub/,AFC,,,,,,,,,,,,,,,,,,,,306.975,307.475,307.475,308.41,3,11,51,Items_pictures/11_crisps.png,Items_pictures/51_tiramisu.png,2,6,1,0,left,11,0.672,1,50,0,50,0,1,,,,
,,Marie-testing-againandagainandagaaaaain,fr,2026-04-21_11h09.05.033,AFC,2024.2.4,iPhone,50,https://run.pavlovia.org/LNS/hub/,AFC,,,,,,,,,,,,,,,,,,,,308.411,308.861,308.862,309.762,3,54,59,Items_pictures/54_ice_cream.png,Items_pictures/59_cheesecake.png,6,6,0,0,right,59,0.637,1,51,0,51,0,1,,,,
,,Marie-testing-againandagainandagaaaaain,fr,2026-04-21_11h09.05.033,AFC,2024.2.4,iPhone,50,https://run.pavlovia.org/LNS/hub/,AFC,,,,,,,,,,,,,,,,,,,,309.764,310.197,310.197,311.165,3,48,51,Items_pictures/48_sour_candy.png,Items_pictures/51_tiramisu.png,5,6,0,0,right,51,0.706,1,52,0,52,0,1,,,,
,,Marie-testing-againandagainandagaaaaain,fr,2026-04-21_11h09.05.033,AFC,2024.2.4,iPhone,50,https://run.pavlovia.org/LNS/hub/,AFC,,,,,,,,,,,,,,,,,,,,311.166,311.632,311.633,312.867,3,10,5,Items_pictures/10_dried_fruits.png,Items_pictures/5_bell_pepper.png,1,1,0,1,left,10,0.975,1,53,0,53,0,1,,,,
,,Marie-testing-againandagainandagaaaaain,fr,2026-04-21_11h09.05.033,AFC,2024.2.4,iPhone,50,https://run.pavlovia.org/LNS/hub/,AFC,,,,,,,,,,,,,,,,,,,,312.869,313.635,313.636,314.787,3,15,49,Items_pictures/15_flute.png,Items_pictures/49_chocolate_cookie.png,2,5,1,0,right,49,0.886,1,54,0,54,0,1,,,,
,,Marie-testing-againandagainandagaaaaain,fr,2026-04-21_11h09.05.033,AFC,2024.2.4,iPhone,50,https://run.pavlovia.org/LNS/hub/,AFC,,,,,,,,,,,,,,,,,,,,314.788,315.138,315.138,316.239,3,4,40,Items_pictures/4_plain_yogurt.png,Items_pictures/40_tresse.png,1,4,0,0,right,40,0.842,1,55,0,55,0,1,,,,
,,Marie-testing-againandagainandagaaaaain,fr,2026-04-21_11h09.05.033,AFC,2024.2.4,iPhone,50,https://run.pavlovia.org/LNS/hub/,AFC,,,,,,,,,,,,,,,,,,,,316.241,316.757,316.758,317.842,3,54,37,Items_pictures/54_ice_cream.png,Items_pictures/37_pain_chocolat.png,6,4,0,0,right,37,0.821,1,56,0,56,0,1,,,,
,,Marie-testing-againandagainandagaaaaain,fr,2026-04-21_11h09.05.033,AFC,2024.2.4,iPhone,50,https://run.pavlovia.org/LNS/hub/,AFC,,,,,,,,,,,,,,,,,,,,317.844,318.193,318.193,319.228,3,59,15,Items_pictures/59_cheesecake.png,Items_pictures/15_flute.png,6,2,0,1,left,59,0.773,1,57,0,57,0,1,,,,
,,Marie-testing-againandagainandagaaaaain,fr,2026-04-21_11h09.05.033,AFC,2024.2.4,iPhone,50,https://run.pavlovia.org/LNS/hub/,AFC,,,,,,,,,,,,,,,,,,,,319.23,319.745,319.746,320.713,3,22,37,Items_pictures/22_veg_pizza.png,Items_pictures/37_pain_chocolat.png,3,4,1,0,right,37,0.708,1,58,0,58,0,1,,,,
,,Marie-testing-againandagainandagaaaaain,fr,2026-04-21_11h09.05.033,AFC,2024.2.4,iPhone,50,https://run.pavlovia.org/LNS/hub/,AFC,,,,,,,,,,,,,,,,,,,,320.715,321.098,321.098,321.899,3,31,22,Items_pictures/31_croissant.png,Items_pictures/22_veg_pizza.png,4,3,0,1,right,22,0.536,1,59,0,59,0,1,,,,
,,Marie-testing-againandagainandagaaaaain,fr,2026-04-21_11h09.05.033,AFC,2024.2.4,iPhone,50,https://run.pavlovia.org/LNS/hub/,AFC,,,,,,,,,,,,,,,,,,,,321.9,322.283,322.284,323.385,3,40,12,Items_pictures/40_tresse.png,Items_pictures/12_crisps.png,4,2,0,1,left,40,0.84,1,60,0,60,0,1,,,,
,,Marie-testing-againandagainandagaaaaain,fr,2026-04-21_11h09.05.033,AFC,2024.2.4,iPhone,50,https://run.pavlovia.org/LNS/hub/,AFC,,,,,,,,,,,,,,,,,,,,323.387,323.953,323.953,325.223,3,59,48,Items_pictures/59_cheesecake.png,Items_pictures/48_sour_candy.png,6,5,0,0,right,48,1.01,1,61,0,61,0,1,,,,
,,Marie-testing-againandagainandagaaaaain,fr,2026-04-21_11h09.05.033,AFC,2024.2.4,iPhone,50,https://run.pavlovia.org/LNS/hub/,AFC,,,,,,,,,,,,,,,,,,,,325.225,325.939,325.94,326.791,3,57,30,Items_pictures/57_fondant.png,Items_pictures/30_onion_rings.png,6,3,0,1,left,57,0.592,1,62,0,62,0,1,,,,
,,Marie-testing-againandagainandagaaaaain,fr,2026-04-21_11h09.05.033,AFC,2024.2.4,iPhone,50,https://run.pavlovia.org/LNS/hub/,AFC,,,,,,,,,,,,,,,,,,,,326.793,327.192,327.192,328.243,3,49,5,Items_pictures/49_chocolate_cookie.png,Items_pictures/5_bell_pepper.png,5,1,0,1,left,49,0.789,1,63,0,63,0,1,,,,
,,Marie-testing-againandagainandagaaaaain,fr,2026-04-21_11h09.05.033,AFC,2024.2.4,iPhone,50,https://run.pavlovia.org/LNS/hub/,AFC,,,,,,,,,,,,,,,,,,,,328.245,328.878,328.878,329.829,3,5,28,Items_pictures/5_bell_pepper.png,Items_pictures/28_veg_burger.png,1,3,1,1,right,28,0.687,1,64,0,64,0,1,,,,
,,Marie-testing-againandagainandagaaaaain,fr,2026-04-21_11h09.05.033,AFC,2024.2.4,iPhone,50,https://run.pavlovia.org/LNS/hub/,AFC,,,,,,,,,,,,,,,,,,,,329.831,330.297,330.298,331.382,3,5,37,Items_pictures/5_bell_pepper.png,Items_pictures/37_pain_chocolat.png,1,4,1,0,right,37,0.824,1,65,0,65,0,1,,,,
,,Marie-testing-againandagainandagaaaaain,fr,2026-04-21_11h09.05.033,AFC,2024.2.4,iPhone,50,https://run.pavlovia.org/LNS/hub/,AFC,,,,,,,,,,,,,,,,,,,,331.384,332.117,332.118,333.219,3,12,51,Items_pictures/12_crisps.png,Items_pictures/51_tiramisu.png,2,6,1,0,left,12,0.841,1,66,0,66,0,1,,,,
,,Marie-testing-againandagainandagaaaaain,fr,2026-04-21_11h09.05.033,AFC,2024.2.4,iPhone,50,https://run.pavlovia.org/LNS/hub/,AFC,,,,,,,,,,,,,,,,,,,,333.221,333.804,333.804,334.755,3,51,37,Items_pictures/51_tiramisu.png,Items_pictures/37_pain_chocolat.png,6,4,0,0,left,51,0.686,1,67,0,67,0,1,,,,
,,Marie-testing-againandagainandagaaaaain,fr,2026-04-21_11h09.05.033,AFC,2024.2.4,iPhone,50,https://run.pavlovia.org/LNS/hub/,AFC,,,,,,,,,,,,,,,,,,,,334.757,335.122,335.123,336.224,3,54,12,Items_pictures/54_ice_cream.png,Items_pictures/12_crisps.png,6,2,0,1,left,54,0.838,1,68,0,68,0,1,,,,
,,Marie-testing-againandagainandagaaaaain,fr,2026-04-21_11h09.05.033,AFC,2024.2.4,iPhone,50,https://run.pavlovia.org/LNS/hub/,AFC,,,,,,,,,,,,,,,,,,413.152,437.604,438.166,438.865,438.866,439.7,4,15,40,Items_pictures/15_flute.png,Items_pictures/40_tresse.png,2,4,1,0,right,40,0.572,1,0,0,0,0,1,336.226,413.151,,
,,Marie-testing-againandagainandagaaaaain,fr,2026-04-21_11h09.05.033,AFC,2024.2.4,iPhone,50,https://run.pavlovia.org/LNS/hub/,AFC,,,,,,,,,,,,,,,,,,,,439.701,440.201,440.201,441.018,4,28,35,Items_pictures/28_veg_burger.png,Items_pictures/35_focaccia.png,3,4,1,1,left,28,0.557,1,1,0,1,0,1,,,,
,,Marie-testing-againandagainandagaaaaain,fr,2026-04-21_11h09.05.033,AFC,2024.2.4,iPhone,50,https://run.pavlovia.org/LNS/hub/,AFC,,,,,,,,,,,,,,,,,,,,441.02,441.553,441.553,442.487,4,9,12,Items_pictures/9_healthy_cracker.png,Items_pictures/12_crisps.png,1,2,1,1,right,12,0.671,1,2,0,2,0,1,,,,
,,Marie-testing-againandagainandagaaaaain,fr,2026-04-21_11h09.05.033,AFC,2024.2.4,iPhone,50,https://run.pavlovia.org/LNS/hub/,AFC,,,,,,,,,,,,,,,,,,,,442.489,442.855,442.855,443.805,4,9,31,Items_pictures/9_healthy_cracker.png,Items_pictures/31_croissant.png,1,4,1,0,right,31,0.688,1,3,0,3,0,1,,,,
,,Marie-testing-againandagainandagaaaaain,fr,2026-04-21_11h09.05.033,AFC,2024.2.4,iPhone,50,https://run.pavlovia.org/LNS/hub/,AFC,,,,,,,,,,,,,,,,,,,,443.807,444.373,444.374,445.274,4,9,17,Items_pictures/9_healthy_cracker.png,Items_pictures/17_flips.png,1,2,1,1,right,17,0.641,1,4,0,4,0,1,,,,
,,Marie-testing-againandagainandagaaaaain,fr,2026-04-21_11h09.05.033,AFC,2024.2.4,iPhone,50,https://run.pavlovia.org/LNS/hub/,AFC,,,,,,,,,,,,,,,,,,,,445.274,445.625,445.626,446.609,4,40,48,Items_pictures/40_tresse.png,Items_pictures/48_sour_candy.png,4,5,0,0,left,40,0.718,1,5,0,5,0,1,,,,
,,Marie-testing-againandagainandagaaaaain,fr,2026-04-21_11h09.05.033,AFC,2024.2.4,iPhone,50,https://run.pavlovia.org/LNS/hub/,AFC,,,,,,,,,,,,,,,,,,,,446.61,447.026,447.026,448.027,4,9,51,Items_pictures/9_healthy_cracker.png,Items_pictures/51_tiramisu.png,1,6,1,0,right,51,0.736,1,6,0,6,0,1,,,,
,,Marie-testing-againandagainandagaaaaain,fr,2026-04-21_11h09.05.033,AFC,2024.2.4,iPhone,50,https://run.pavlovia.org/LNS/hub/,AFC,,,,,,,,,,,,,,,,,,,,448.029,448.445,448.445,449.379,4,10,28,Items_pictures/10_dried_fruits.png,Items_pictures/28_veg_burger.png,1,3,0,1,right,28,0.67,1,7,0,7,0,1,,,,
,,Marie-testing-againandagainandagaaaaain,fr,2026-04-21_11h09.05.033,AFC,2024.2.4,iPhone,50,https://run.pavlovia.org/LNS/hub/,AFC,,,,,,,,,,,,,,,,,,,,449.381,450.08,450.081,451.031,4,37,9,Items_pictures/37_pain_chocolat.png,Items_pictures/9_healthy_cracker.png,4,1,0,1,left,37,0.685,1,8,0,8,0,1,,,,
,,Marie-testing-againandagainandagaaaaain,fr,2026-04-21_11h09.05.033,AFC,2024.2.4,iPhone,50,https://run.pavlovia.org/LNS/hub/,AFC,,,,,,,,,,,,,,,,,,,,451.033,451.665,451.666,452.733,4,47,35,Items_pictures/47_gummy_candy.png,Items_pictures/35_focaccia.png,5,4,0,1,right,35,0.808,1,9,0,9,0,1,,,,
,,Marie-testing-againandagainandagaaaaain,fr,2026-04-21_11h09.05.033,AFC,2024.2.4,iPhone,50,https://run.pavlovia.org/LNS/hub/,AFC,,,,,,,,,,,,,,,,,,,,452.735,453.194,453.194,454.135,4,47,54,Items_pictures/47_gummy_candy.png,Items_pictures/54_ice_cream.png,5,6,0,0,right,54,0.683,1,10,0,10,0,1,,,,
,,Marie-testing-againandagainandagaaaaain,fr,2026-04-21_11h09.05.033,AFC,2024.2.4,iPhone,50,https://run.pavlovia.org/LNS/hub/,AFC,,,,,,,,,,,,,,,,,,,,454.137,454.57,454.57,455.488,4,59,41,Items_pictures/59_cheesecake.png,Items_pictures/41_chocolate_snack.png,6,5,0,0,right,41,0.658,1,11,0,11,0,1,,,,
,,Marie-testing-againandagainandagaaaaain,fr,2026-04-21_11h09.05.033,AFC,2024.2.4,iPhone,50,https://run.pavlovia.org/LNS/hub/,AFC,,,,,,,,,,,,,,,,,,,,455.489,456.038,456.039,456.873,4,15,41,Items_pictures/15_flute.png,Items_pictures/41_chocolate_snack.png,2,5,1,0,right,41,0.573,1,12,0,12,0,1,,,,
,,Marie-testing-againandagainandagaaaaain,fr,2026-04-21_11h09.05.033,AFC,2024.2.4,iPhone,50,https://run.pavlovia.org/LNS/hub/,AFC,,,,,,,,,,,,,,,,,,,,456.875,457.541,457.541,458.542,4,11,12,Items_pictures/11_crisps.png,Items_pictures/12_crisps.png,2,2,1,1,right,12,0.741,1,13,0,13,0,1,,,,
,,Marie-testing-againandagainandagaaaaain,fr,2026-04-21_11h09.05.033,AFC,2024.2.4,iPhone,50,https://run.pavlovia.org/LNS/hub/,AFC,,,,,,,,,,,,,,,,,,,,458.544,459.227,459.227,460.178,4,57,4,Items_pictures/57_fondant.png,Items_pictures/4_plain_yogurt.png,6,1,0,0,left,57,0.688,1,14,0,14,0,1,,,,
,,Marie-testing-againandagainandagaaaaain,fr,2026-04-21_11h09.05.033,AFC,2024.2.4,iPhone,50,https://run.pavlovia.org/LNS/hub/,AFC,,,,,,,,,,,,,,,,,,,,460.18,460.746,460.746,461.564,4,57,22,Items_pictures/57_fondant.png,Items_pictures/22_veg_pizza.png,6,3,0,1,left,57,0.56,1,15,0,15,0,1,,,,
,,Marie-testing-againandagainandagaaaaain,fr,2026-04-21_11h09.05.033,AFC,2024.2.4,iPhone,50,https://run.pavlovia.org/LNS/hub/,AFC,,,,,,,,,,,,,,,,,,,,461.565,462.299,462.308,463.383,4,11,15,Items_pictures/11_crisps.png,Items_pictures/15_flute.png,2,2,1,1,left,11,0.817,1,16,0,16,0,1,,,,
,,Marie-testing-againandagainandagaaaaain,fr,2026-04-21_11h09.05.033,AFC,2024.2.4,iPhone,50,https://run.pavlovia.org/LNS/hub/,AFC,,,,,,,,,,,,,,,,,,,,463.385,463.734,463.734,464.986,4,41,17,Items_pictures/41_chocolate_snack.png,Items_pictures/17_flips.png,5,2,0,1,left,41,0.989,1,17,0,17,0,1,,,,
,,Marie-testing-againandagainandagaaaaain,fr,2026-04-21_11h09.05.033,AFC,2024.2.4,iPhone,50,https://run.pavlovia.org/LNS/hub/,AFC,,,,,,,,,,,,,,,,,,,,464.988,465.571,465.571,466.589,4,47,10,Items_pictures/47_gummy_candy.png,Items_pictures/10_dried_fruits.png,5,1,0,0,right,10,0.755,1,18,0,18,0,1,,,,
,,Marie-testing-againandagainandagaaaaain,fr,2026-04-21_11h09.05.033,AFC,2024.2.4,iPhone,50,https://run.pavlovia.org/LNS/hub/,AFC,,,,,,,,,,,,,,,,,,,,466.59,467.056,467.057,467.991,4,59,31,Items_pictures/59_cheesecake.png,Items_pictures/31_croissant.png,6,4,0,0,right,31,0.669,1,19,0,19,0,1,,,,
,,Marie-testing-againandagainandagaaaaain,fr,2026-04-21_11h09.05.033,AFC,2024.2.4,iPhone,50,https://run.pavlovia.org/LNS/hub/,AFC,,,,,,,,,,,,,,,,,,,,467.993,468.392,468.393,469.277,4,28,25,Items_pictures/28_veg_burger.png,Items_pictures/25_fries.png,3,3,1,1,left,28,0.623,1,20,0,20,0,1,,,,
,,Marie-testing-againandagainandagaaaaain,fr,2026-04-21_11h09.05.033,AFC,2024.2.4,iPhone,50,https://run.pavlovia.org/LNS/hub/,AFC,,,,,,,,,,,,,,,,,,,,469.278,470.011,470.012,471.046,4,41,47,Items_pictures/41_chocolate_snack.png,Items_pictures/47_gummy_candy.png,5,5,0,0,left,41,0.771,1,21,0,21,0,1,,,,
,,Marie-testing-againandagainandagaaaaain,fr,2026-04-21_11h09.05.033,AFC,2024.2.4,iPhone,50,https://run.pavlovia.org/LNS/hub/,AFC,,,,,,,,,,,,,,,,,,,,471.048,471.547,471.548,472.532,4,35,4,Items_pictures/35_focaccia.png,Items_pictures/4_plain_yogurt.png,4,1,1,0,left,35,0.719,1,22,0,22,0,1,,,,
,,Marie-testing-againandagainandagaaaaain,fr,2026-04-21_11h09.05.033,AFC,2024.2.4,iPhone,50,https://run.pavlovia.org/LNS/hub/,AFC,,,,,,,,,,,,,,,,,,,,472.534,472.966,472.967,474.051,4,31,48,Items_pictures/31_croissant.png,Items_pictures/48_sour_candy.png,4,5,0,0,left,31,0.821,1,23,0,23,0,1,,,,
,,Marie-testing-againandagainandagaaaaain,fr,2026-04-21_11h09.05.033,AFC,2024.2.4,iPhone,50,https://run.pavlovia.org/LNS/hub/,AFC,,,,,,,,,,,,,,,,,,,,474.053,474.787,474.787,475.654,4,25,41,Items_pictures/25_fries.png,Items_pictures/41_chocolate_snack.png,3,5,1,0,right,41,0.608,1,24,0,24,0,1,,,,
,,Marie-testing-againandagainandagaaaaain,fr,2026-04-21_11h09.05.033,AFC,2024.2.4,iPhone,50,https://run.pavlovia.org/LNS/hub/,AFC,,,,,,,,,,,,,,,,,,,,475.656,475.988,475.989,476.99,4,9,11,Items_pictures/9_healthy_cracker.png,Items_pictures/11_crisps.png,1,2,1,1,right,11,0.75,1,25,0,25,0,1,,,,
,,Marie-testing-againandagainandagaaaaain,fr,2026-04-21_11h09.05.033,AFC,2024.2.4,iPhone,50,https://run.pavlovia.org/LNS/hub/,AFC,,,,,,,,,,,,,,,,,,,,476.992,477.541,477.542,478.593,4,11,37,Items_pictures/11_crisps.png,Items_pictures/37_pain_chocolat.png,2,4,1,0,left,11,0.788,1,26,0,26,0,1,,,,
,,Marie-testing-againandagainandagaaaaain,fr,2026-04-21_11h09.05.033,AFC,2024.2.4,iPhone,50,https://run.pavlovia.org/LNS/hub/,AFC,,,,,,,,,,,,,,,,,,,,478.595,479.027,479.028,480.162,4,48,47,Items_pictures/48_sour_candy.png,Items_pictures/47_gummy_candy.png,5,5,0,0,right,47,0.873,1,27,0,27,0,1,,,,
,,Marie-testing-againandagainandagaaaaain,fr,2026-04-21_11h09.05.033,AFC,2024.2.4,iPhone,50,https://run.pavlovia.org/LNS/hub/,AFC,,,,,,,,,,,,,,,,,,,,480.164,480.93,480.931,481.915,4,57,35,Items_pictures/57_fondant.png,Items_pictures/35_focaccia.png,6,4,0,1,left,57,0.724,1,28,0,28,0,1,,,,
,,Marie-testing-againandagainandagaaaaain,fr,2026-04-21_11h09.05.033,AFC,2024.2.4,iPhone,50,https://run.pavlovia.org/LNS/hub/,AFC,,,,,,,,,,,,,,,,,,,,481.917,482.467,482.467,483.418,4,40,47,Items_pictures/40_tresse.png,Items_pictures/47_gummy_candy.png,4,5,0,0,right,47,0.693,1,29,0,29,0,1,,,,
,,Marie-testing-againandagainandagaaaaain,fr,2026-04-21_11h09.05.033,AFC,2024.2.4,iPhone,50,https://run.pavlovia.org/LNS/hub/,AFC,,,,,,,,,,,,,,,,,,,,483.427,484.019,484.019,485.054,4,15,12,Items_pictures/15_flute.png,Items_pictures/12_crisps.png,2,2,1,1,right,12,0.777,1,30,0,30,0,1,,,,
,,Marie-testing-againandagainandagaaaaain,fr,2026-04-21_11h09.05.033,AFC,2024.2.4,iPhone,50,https://run.pavlovia.org/LNS/hub/,AFC,,,,,,,,,,,,,,,,,,,,485.055,485.539,485.539,486.507,4,41,28,Items_pictures/41_chocolate_snack.png,Items_pictures/28_veg_burger.png,5,3,0,1,right,28,0.706,1,31,0,31,0,1,,,,
,,Marie-testing-againandagainandagaaaaain,fr,2026-04-21_11h09.05.033,AFC,2024.2.4,iPhone,50,https://run.pavlovia.org/LNS/hub/,AFC,,,,,,,,,,,,,,,,,,,,486.508,486.958,486.958,487.909,4,30,40,Items_pictures/30_onion_rings.png,Items_pictures/40_tresse.png,3,4,1,0,right,40,0.688,1,32,0,32,0,1,,,,
,,Marie-testing-againandagainandagaaaaain,fr,2026-04-21_11h09.05.033,AFC,2024.2.4,iPhone,50,https://run.pavlovia.org/LNS/hub/,AFC,,,,,,,,,,,,,,,,,,,,487.911,488.377,488.377,489.529,4,48,17,Items_pictures/48_sour_candy.png,Items_pictures/17_flips.png,5,2,0,1,right,17,0.89,1,33,0,33,0,1,,,,
,,Marie-testing-againandagainandagaaaaain,fr,2026-04-21_11h09.05.033,AFC,2024.2.4,iPhone,50,https://run.pavlovia.org/LNS/hub/,AFC,,,,,,,,,,,,,,,,,,,,489.53,490.264,490.264,491.165,4,48,4,Items_pictures/48_sour_candy.png,Items_pictures/4_plain_yogurt.png,5,1,0,0,left,48,0.641,1,34,0,34,0,1,,,,
,,Marie-testing-againandagainandagaaaaain,fr,2026-04-21_11h09.05.033,AFC,2024.2.4,iPhone,50,https://run.pavlovia.org/LNS/hub/,AFC,,,,,,,,,,,,,,,,,,,,491.167,491.917,491.917,492.952,4,35,49,Items_pictures/35_focaccia.png,Items_pictures/49_chocolate_cookie.png,4,5,1,0,right,49,0.771,1,35,0,35,0,1,,,,
,,Marie-testing-againandagainandagaaaaain,fr,2026-04-21_11h09.05.033,AFC,2024.2.4,iPhone,50,https://run.pavlovia.org/LNS/hub/,AFC,,,,,,,,,,,,,,,,,,,,492.953,493.336,493.336,494.438,4,48,22,Items_pictures/48_sour_candy.png,Items_pictures/22_veg_pizza.png,5,3,0,1,right,22,0.842,1,36,0,36,0,1,,,,
,,Marie-testing-againandagainandagaaaaain,fr,2026-04-21_11h09.05.033,AFC,2024.2.4,iPhone,50,https://run.pavlovia.org/LNS/hub/,AFC,,,,,,,,,,,,,,,,,,,,494.44,495.173,495.173,496.391,4,4,59,Items_pictures/4_plain_yogurt.png,Items_pictures/59_cheesecake.png,1,6,0,0,left,4,0.957,1,37,0,37,0,1,,,,
,,Marie-testing-againandagainandagaaaaain,fr,2026-04-21_11h09.05.033,AFC,2024.2.4,iPhone,50,https://run.pavlovia.org/LNS/hub/,AFC,,,,,,,,,,,,,,,,,,,,496.393,497.075,497.076,498.328,4,10,22,Items_pictures/10_dried_fruits.png,Items_pictures/22_veg_pizza.png,1,3,0,1,right,22,0.989,1,38,0,38,0,1,,,,
,,Marie-testing-againandagainandagaaaaain,fr,2026-04-21_11h09.05.033,AFC,2024.2.4,iPhone,50,https://run.pavlovia.org/LNS/hub/,AFC,,,,,,,,,,,,,,,,,,,,498.329,499.063,499.063,500.131,4,51,40,Items_pictures/51_tiramisu.png,Items_pictures/40_tresse.png,6,4,0,0,left,51,0.81,1,39,0,39,0,1,,,,
,,Marie-testing-againandagainandagaaaaain,fr,2026-04-21_11h09.05.033,AFC,2024.2.4,iPhone,50,https://run.pavlovia.org/LNS/hub/,AFC,,,,,,,,,,,,,,,,,,,,500.133,500.698,500.698,501.817,4,35,25,Items_pictures/35_focaccia.png,Items_pictures/25_fries.png,4,3,1,1,right,25,0.857,1,40,0,40,0,1,,,,
,,Marie-testing-againandagainandagaaaaain,fr,2026-04-21_11h09.05.033,AFC,2024.2.4,iPhone,50,https://run.pavlovia.org/LNS/hub/,AFC,,,,,,,,,,,,,,,,,,,,501.819,502.302,502.302,503.42,4,51,59,Items_pictures/51_tiramisu.png,Items_pictures/59_cheesecake.png,6,6,0,0,left,51,0.855,1,41,0,41,0,1,,,,
,,Marie-testing-againandagainandagaaaaain,fr,2026-04-21_11h09.05.033,AFC,2024.2.4,iPhone,50,https://run.pavlovia.org/LNS/hub/,AFC,,,,,,,,,,,,,,,,,,,,503.422,503.788,503.788,504.94,4,31,35,Items_pictures/31_croissant.png,Items_pictures/35_focaccia.png,4,4,0,1,left,31,0.892,1,42,0,42,0,1,,,,
,,Marie-testing-againandagainandagaaaaain,fr,2026-04-21_11h09.05.033,AFC,2024.2.4,iPhone,50,https://run.pavlovia.org/LNS/hub/,AFC,,,,,,,,,,,,,,,,,,,,504.941,505.741,505.742,506.709,4,22,40,Items_pictures/22_veg_pizza.png,Items_pictures/40_tresse.png,3,4,1,0,left,22,0.703,1,43,0,43,0,1,,,,
,,Marie-testing-againandagainandagaaaaain,fr,2026-04-21_11h09.05.033,AFC,2024.2.4,iPhone,50,https://run.pavlovia.org/LNS/hub/,AFC,,,,,,,,,,,,,,,,,,,,506.711,507.068,507.069,508.129,4,40,17,Items_pictures/40_tresse.png,Items_pictures/17_flips.png,4,2,0,1,left,40,0.797,1,44,0,44,0,1,,,,
,,Marie-testing-againandagainandagaaaaain,fr,2026-04-21_11h09.05.033,AFC,2024.2.4,iPhone,50,https://run.pavlovia.org/LNS/hub/,AFC,,,,,,,,,,,,,,,,,,,,508.131,508.83,508.831,509.898,4,30,48,Items_pictures/30_onion_rings.png,Items_pictures/48_sour_candy.png,3,5,1,0,right,48,0.808,1,45,0,45,0,1,,,,
,,Marie-testing-againandagainandagaaaaain,fr,2026-04-21_11h09.05.033,AFC,2024.2.4,iPhone,50,https://run.pavlovia.org/LNS/hub/,AFC,,,,,,,,,,,,,,,,,,,,509.9,510.549,510.55,511.651,4,12,48,Items_pictures/12_crisps.png,Items_pictures/48_sour_candy.png,2,5,1,0,right,48,0.842,1,46,0,46,0,1,,,,
,,Marie-testing-againandagainandagaaaaain,fr,2026-04-21_11h09.05.033,AFC,2024.2.4,iPhone,50,https://run.pavlovia.org/LNS/hub/,AFC,,,,,,,,,,,,,,,,,,,,511.653,511.969,511.969,513.104,4,59,30,Items_pictures/59_cheesecake.png,Items_pictures/30_onion_rings.png,6,3,0,1,right,30,0.875,1,47,0,47,0,1,,,,
,,Marie-testing-againandagainandagaaaaain,fr,2026-04-21_11h09.05.033,AFC,2024.2.4,iPhone,50,https://run.pavlovia.org/LNS/hub/,AFC,,,,,,,,,,,,,,,,,,,,513.105,513.789,513.789,514.924,4,40,54,Items_pictures/40_tresse.png,Items_pictures/54_ice_cream.png,4,6,0,0,left,40,0.877,1,48,0,48,0,1,,,,
,,Marie-testing-againandagainandagaaaaain,fr,2026-04-21_11h09.05.033,AFC,2024.2.4,iPhone,50,https://run.pavlovia.org/LNS/hub/,AFC,,,,,,,,,,,,,,,,,,,,514.926,515.274,515.275,516.443,4,28,4,Items_pictures/28_veg_burger.png,Items_pictures/4_plain_yogurt.png,3,1,1,0,left,28,0.909,1,49,0,49,0,1,,,,
,,Marie-testing-againandagainandagaaaaain,fr,2026-04-21_11h09.05.033,AFC,2024.2.4,iPhone,50,https://run.pavlovia.org/LNS/hub/,AFC,,,,,,,,,,,,,,,,,,,,516.445,517.062,517.062,518.029,4,31,5,Items_pictures/31_croissant.png,Items_pictures/5_bell_pepper.png,4,1,0,1,left,31,0.706,1,50,0,50,0,1,,,,
,,Marie-testing-againandagainandagaaaaain,fr,2026-04-21_11h09.05.033,AFC,2024.2.4,iPhone,50,https://run.pavlovia.org/LNS/hub/,AFC,,,,,,,,,,,,,,,,,,,,518.031,518.531,518.531,519.783,4,5,59,Items_pictures/5_bell_pepper.png,Items_pictures/59_cheesecake.png,1,6,1,0,right,59,0.993,1,51,0,51,0,1,,,,
,,Marie-testing-againandagainandagaaaaain,fr,2026-04-21_11h09.05.033,AFC,2024.2.4,iPhone,50,https://run.pavlovia.org/LNS/hub/,AFC,,,,,,,,,,,,,,,,,,,,519.785,520.151,520.151,521.169,4,35,17,Items_pictures/35_focaccia.png,Items_pictures/17_flips.png,4,2,1,1,right,17,0.756,1,52,0,52,0,1,,,,
,,Marie-testing-againandagainandagaaaaain,fr,2026-04-21_11h09.05.033,AFC,2024.2.4,iPhone,50,https://run.pavlovia.org/LNS/hub/,AFC,,,,,,,,,,,,,,,,,,,,521.171,521.803,521.804,522.956,4,37,47,Items_pictures/37_pain_chocolat.png,Items_pictures/47_gummy_candy.png,4,5,0,0,left,37,0.889,1,53,0,53,0,1,,,,
,,Marie-testing-againandagainandagaaaaain,fr,2026-04-21_11h09.05.033,AFC,2024.2.4,iPhone,50,https://run.pavlovia.org/LNS/hub/,AFC,,,,,,,,,,,,,,,,,,,,522.958,523.741,523.741,524.826,4,15,4,Items_pictures/15_flute.png,Items_pictures/4_plain_yogurt.png,2,1,1,0,left,15,0.826,1,54,0,54,0,1,,,,
,,Marie-testing-againandagainandagaaaaain,fr,2026-04-21_11h09.05.033,AFC,2024.2.4,iPhone,50,https://run.pavlovia.org/LNS/hub/,AFC,,,,,,,,,,,,,,,,,,,,524.828,525.595,525.595,526.63,4,37,59,Items_pictures/37_pain_chocolat.png,Items_pictures/59_cheesecake.png,4,6,0,0,left,37,0.772,1,55,0,55,0,1,,,,
,,Marie-testing-againandagainandagaaaaain,fr,2026-04-21_11h09.05.033,AFC,2024.2.4,iPhone,50,https://run.pavlovia.org/LNS/hub/,AFC,,,,,,,,,,,,,,,,,,,,526.631,527.198,527.198,528.166,4,47,31,Items_pictures/47_gummy_candy.png,Items_pictures/31_croissant.png,5,4,0,0,right,31,0.71,1,56,0,56,0,1,,,,
,,Marie-testing-againandagainandagaaaaain,fr,2026-04-21_11h09.05.033,AFC,2024.2.4,iPhone,50,https://run.pavlovia.org/LNS/hub/,AFC,,,,,,,,,,,,,,,,,,,,528.167,528.517,528.517,529.501,4,12,30,Items_pictures/12_crisps.png,Items_pictures/30_onion_rings.png,2,3,1,1,left,12,0.726,1,57,0,57,0,1,,,,
,,Marie-testing-againandagainandagaaaaain,fr,2026-04-21_11h09.05.033,AFC,2024.2.4,iPhone,50,https://run.pavlovia.org/LNS/hub/,AFC,,,,,,,,,,,,,,,,,,,,529.503,530.237,530.237,531.122,4,47,11,Items_pictures/47_gummy_candy.png,Items_pictures/11_crisps.png,5,2,0,1,right,11,0.621,1,58,0,58,0,1,,,,
,,Marie-testing-againandagainandagaaaaain,fr,2026-04-21_11h09.05.033,AFC,2024.2.4,iPhone,50,https://run.pavlovia.org/LNS/hub/,AFC,,,,,,,,,,,,,,,,,,,,531.124,531.54,531.54,532.642,4,48,11,Items_pictures/48_sour_candy.png,Items_pictures/11_crisps.png,5,2,0,1,right,11,0.84,1,59,0,59,0,1,,,,
,,Marie-testing-againandagainandagaaaaain,fr,2026-04-21_11h09.05.033,AFC,2024.2.4,iPhone,50,https://run.pavlovia.org/LNS/hub/,AFC,,,,,,,,,,,,,,,,,,,,532.643,533.377,533.378,534.312,4,30,37,Items_pictures/30_onion_rings.png,Items_pictures/37_pain_chocolat.png,3,4,1,0,right,37,0.675,1,60,0,60,0,1,,,,
,,Marie-testing-againandagainandagaaaaain,fr,2026-04-21_11h09.05.033,AFC,2024.2.4,iPhone,50,https://run.pavlovia.org/LNS/hub/,AFC,,,,,,,,,,,,,,,,,,,,534.314,534.647,534.647,535.899,4,15,37,Items_pictures/15_flute.png,Items_pictures/37_pain_chocolat.png,2,4,1,0,right,37,0.988,1,61,0,61,0,1,,,,
,,Marie-testing-againandagainandagaaaaain,fr,2026-04-21_11h09.05.033,AFC,2024.2.4,iPhone,50,https://run.pavlovia.org/LNS/hub/,AFC,,,,,,,,,,,,,,,,,,,,535.901,536.317,536.317,537.319,4,17,12,Items_pictures/17_flips.png,Items_pictures/12_crisps.png,2,2,1,1,right,12,0.739,1,62,0,62,0,1,,,,
,,Marie-testing-againandagainandagaaaaain,fr,2026-04-21_11h09.05.033,AFC,2024.2.4,iPhone,50,https://run.pavlovia.org/LNS/hub/,AFC,,,,,,,,,,,,,,,,,,,,537.322,537.687,537.687,538.755,4,41,57,Items_pictures/41_chocolate_snack.png,Items_pictures/57_fondant.png,5,6,0,0,right,57,0.806,1,63,0,63,0,1,,,,
,,Marie-testing-againandagainandagaaaaain,fr,2026-04-21_11h09.05.033,AFC,2024.2.4,iPhone,50,https://run.pavlovia.org/LNS/hub/,AFC,,,,,,,,,,,,,,,,,,,,538.757,539.39,539.39,540.325,4,4,30,Items_pictures/4_plain_yogurt.png,Items_pictures/30_onion_rings.png,1,3,0,1,right,30,0.675,1,64,0,64,0,1,,,,
,,Marie-testing-againandagainandagaaaaain,fr,2026-04-21_11h09.05.033,AFC,2024.2.4,iPhone,50,https://run.pavlovia.org/LNS/hub/,AFC,,,,,,,,,,,,,,,,,,,,540.327,541.06,541.06,542.086,4,9,49,Items_pictures/9_healthy_cracker.png,Items_pictures/49_chocolate_cookie.png,1,5,1,0,right,49,0.756,1,65,0,65,0,1,,,,
,,Marie-testing-againandagainandagaaaaain,fr,2026-04-21_11h09.05.033,AFC,2024.2.4,iPhone,50,https://run.pavlovia.org/LNS/hub/,AFC,,,,,,,,,,,,,,,,,,,,542.088,542.396,542.397,543.448,4,31,25,Items_pictures/31_croissant.png,Items_pictures/25_fries.png,4,3,0,1,left,31,0.788,1,66,0,66,0,1,,,,
,,Marie-testing-againandagainandagaaaaain,fr,2026-04-21_11h09.05.033,AFC,2024.2.4,iPhone,50,https://run.pavlovia.org/LNS/hub/,AFC,,,,,,,,,,,,,,,,,,,,543.45,544.216,544.217,545.151,4,17,22,Items_pictures/17_flips.png,Items_pictures/22_veg_pizza.png,2,3,1,1,right,22,0.673,1,67,0,67,0,1,,,,
,,Marie-testing-againandagainandagaaaaain,fr,2026-04-21_11h09.05.033,AFC,2024.2.4,iPhone,50,https://run.pavlovia.org/LNS/hub/,AFC,,,,,,,,,,,,,,,,,,,,545.153,545.619,545.619,546.654,4,31,4,Items_pictures/31_croissant.png,Items_pictures/4_plain_yogurt.png,4,1,0,0,left,31,0.773,1,68,0,68,0,1,,,,
,,Marie-testing-againandagainandagaaaaain,fr,2026-04-21_11h09.05.033,AFC,2024.2.4,iPhone,50,https://run.pavlovia.org/LNS/hub/,AFC,,,,,,,,,,,,,,,,,,,,,,,,,,,,,,,,,,,,,,,,,,546.656,548.233,548.234,551.248
