aat_ruleOrder,Setup.started,Setup.stopped,participant,lang,date,expName,psychopyVersion,OS,frameRate,hub,task,AAT_instructions.started,AAT_instructions.stopped,AAT_prac_instructions.started,AAT_prac_instructions.stopped,AAT_fixation.started,AAT_fixation.stopped,AAT_practice_trial.started,AAT_practice_trial.stopped,aat_prac_img,aat_prac_RT,aat_prac_response,aat_prac_velocity,aat_prac_init_latency,aat_prac_reversal,aat_prac_distance,aat_prac_displacement,aat_prac_speed,aat_prac_move_time,aat_prac_correct,aat_prac_responded,aat_prac_loop.thisRepN,aat_prac_loop.thisTrialN,aat_prac_loop.thisN,aat_prac_loop.thisIndex,aat_prac_loop.ran,Food_item,Food_name,Category,Cat_name,Meat,Image_file0,Cond,Practice_image_file,AAT_block_start.started,AAT_block_start.stopped,AAT_trial.started,AAT_trial.stopped,aat_block,aat_food_item,aat_food_name,aat_category,aat_cond,aat_congruency,aat_img_file,aat_RT,aat_response,aat_velocity,aat_init_latency,aat_reversal,aat_distance,aat_displacement,aat_speed,aat_move_time,aat_correct,aat_responded,aat_trial_loop.thisRepN,aat_trial_loop.thisTrialN,aat_trial_loop.thisN,aat_trial_loop.thisIndex,aat_trial_loop.ran,AAT_break.started,AAT_break.stopped,Bye.started,Bye.stopped
1,0.002,0.003,Marie-testing-againandagainandagaaaaain,fr,2026-04-21_11h19.01.465,AAT,2024.2.4,iPhone,50,https://run.pavlovia.org/LNS/hub/,AAT,,,,,,,,,,,,,,,,,,,,,,,,,,,,,,,,,,,,,,,,,,,,,,,,,,,,,,,,,,,,,,,,
,,,Marie-testing-againandagainandagaaaaain,fr,2026-04-21_11h19.01.465,AAT,2024.2.4,iPhone,50,https://run.pavlovia.org/LNS/hub/,AAT,0.003,1.5,,,,,,,,,,,,,,,,,,,,,,,,,,,,,,,,,,,,,,,,,,,,,,,,,,,,,,,,,,,,,,
,,,Marie-testing-againandagainandagaaaaain,fr,2026-04-21_11h19.01.465,AAT,2024.2.4,iPhone,50,https://run.pavlovia.org/LNS/hub/,AAT,,,1.501,2.452,,,,,,,,,,,,,,,,,,,,,,,,,,,,,,,,,,,,,,,,,,,,,,,,,,,,,,,,,,,,
,,,Marie-testing-againandagainandagaaaaain,fr,2026-04-21_11h19.01.465,AAT,2024.2.4,iPhone,50,https://run.pavlovia.org/LNS/hub/,AAT,,,,,2.452,3.149,,,,,,,,,,,,,,,,,,,,,,,,,,,,,,,,,,,,,,,,,,,,,,,,,,,,,,,,,,
,,,Marie-testing-againandagainandagaaaaain,fr,2026-04-21_11h19.01.465,AAT,2024.2.4,iPhone,50,https://run.pavlovia.org/LNS/hub/,AAT,,,,,3.156,3.733,3.735,5.253,Practice_pictures/Practice_kiwi.png,0.916,avoid,3.078982597,0.833,0,0.341880342,0.255555556,3.078982597,0.083,1,1,0,0,0,1,1,2,,0,Practice,0,Practice_kiwi,0,Practice_pictures/Practice_kiwi.png,,,,,,,,,,,,,,,,,,,,,,,,,,,,,,,
,,,Marie-testing-againandagainandagaaaaain,fr,2026-04-21_11h19.01.465,AAT,2024.2.4,iPhone,50,https://run.pavlovia.org/LNS/hub/,AAT,,,,,5.521,6.121,6.122,6.769,Practice_pictures/Practice_sushi.png,0.565,approach,5.658119658,0.515,0,0.376923077,0.282905983,5.658119658,0.05,1,1,0,1,1,2,1,3,,0,Practice,0,Practice_sushi,1,Practice_pictures/Practice_sushi.png,,,,,,,,,,,,,,,,,,,,,,,,,,,,,,,
,,,Marie-testing-againandagainandagaaaaain,fr,2026-04-21_11h19.01.465,AAT,2024.2.4,iPhone,50,https://run.pavlovia.org/LNS/hub/,AAT,,,,,7.023,7.641,7.641,8.321,Practice_pictures/Practice_cake.png,0.598,avoid,5.33837747,0.537,0,0.505128205,0.325641026,5.33837747,0.061,1,1,0,2,2,3,1,4,,0,Practice,0,Practice_cake,0,Practice_pictures/Practice_cake.png,,,,,,,,,,,,,,,,,,,,,,,,,,,,,,,
,,,Marie-testing-againandagainandagaaaaain,fr,2026-04-21_11h19.01.465,AAT,2024.2.4,iPhone,50,https://run.pavlovia.org/LNS/hub/,AAT,,,,,8.576,9.176,9.177,10.696,Practice_pictures/Practice_brocoli.png,0.481,approach,7.948717949,0.451,0,0.335042735,0.238461538,7.948717949,0.03,1,1,0,3,3,0,1,1,,0,Practice,0,Practice_brocoli.png,1,Practice_pictures/Practice_brocoli.png,,,,,,,,,,,,,,,,,,,,,,,,,,,,,,,
,,,Marie-testing-againandagainandagaaaaain,fr,2026-04-21_11h19.01.465,AAT,2024.2.4,iPhone,50,https://run.pavlovia.org/LNS/hub/,AAT,,,,,14.205,14.853,,,,,,,,,,,,,,,,,,,,,,,,,,,,10.952,13.525,14.854,15.719,1,25,French fries,3,1,incompatible,Items_pictures/25_fries.png,0.765,avoid,4.657247514,0.716,0,0.437606864,0.228205128,4.168847558,0.049,0,1,0,0,0,0,1,,,,
,,,Marie-testing-againandagainandagaaaaain,fr,2026-04-21_11h19.01.465,AAT,2024.2.4,iPhone,50,https://run.pavlovia.org/LNS/hub/,AAT,,,,,15.973,16.373,,,,,,,,,,,,,,,,,,,,,,,,,,,,,,16.373,16.971,1,17,"Salted nuts (Cashew, peanuts, pistacchios)",2,1,incompatible,Items_pictures/17_flips.png,0.515,avoid,7.663817664,0.485,0,0.323931624,0.22991453,5.925925926,0.03,0,1,1,0,1,0,1,,,,
,,,Marie-testing-againandagainandagaaaaain,fr,2026-04-21_11h19.01.465,AAT,2024.2.4,iPhone,50,https://run.pavlovia.org/LNS/hub/,AAT,,,,,17.225,17.959,,,,,,,,,,,,,,,,,,,,,,,,,,,,,,17.96,19.212,1,11,Crisps,2,1,incompatible,Items_pictures/11_crisps.png,0.565,avoid,6,0.515,0,0.3,0.3,6,0.05,0,1,2,0,2,0,1,,,,
,,,Marie-testing-againandagainandagaaaaain,fr,2026-04-21_11h19.01.465,AAT,2024.2.4,iPhone,50,https://run.pavlovia.org/LNS/hub/,AAT,,,,,19.462,20.247,,,,,,,,,,,,,,,,,,,,,,,,,,,,,,20.248,20.912,1,48,Sour candies,5,0,compatible,Items_pictures/48_sour_candy.png,0.565,approach,5.932629462,0.531,0,0.454700855,0.201709402,5.932629462,0.034,0,1,3,0,3,0,1,,,,
,,,Marie-testing-againandagainandagaaaaain,fr,2026-04-21_11h19.01.465,AAT,2024.2.4,iPhone,50,https://run.pavlovia.org/LNS/hub/,AAT,,,,,21.166,21.8,,,,,,,,,,,,,,,,,,,,,,,,,,,,,,21.801,22.448,1,40,Tresse,4,0,compatible,Items_pictures/40_tresse.png,0.565,approach,6.820512821,0.515,0,0.507692308,0.341025641,6.820512821,0.05,0,1,4,0,4,0,1,,,,
,,,Marie-testing-againandagainandagaaaaain,fr,2026-04-21_11h19.01.465,AAT,2024.2.4,iPhone,50,https://run.pavlovia.org/LNS/hub/,AAT,,,,,22.702,23.37,,,,,,,,,,,,,,,,,,,,,,,,,,,,,,23.37,24.018,1,41,"Chocolate snacks (e.g. Kinder, Knoppers)",5,0,compatible,Items_pictures/41_chocolate_snack.png,0.548,approach,6.967106967,0.515,0,0.467521368,0.22991453,5.646205646,0.033,0,1,5,0,5,0,1,,,,
,,,Marie-testing-againandagainandagaaaaain,fr,2026-04-21_11h19.01.465,AAT,2024.2.4,iPhone,50,https://run.pavlovia.org/LNS/hub/,AAT,,,,,24.271,24.94,,,,,,,,,,,,,,,,,,,,,,,,,,,,,,24.94,25.554,1,15,Flute,2,1,incompatible,Items_pictures/15_flute.png,0.514,avoid,3.750478377,0.447,0,0.413675214,0.251282051,3.750478377,0.067,0,1,6,0,6,0,1,,,,
,,,Marie-testing-againandagainandagaaaaain,fr,2026-04-21_11h19.01.465,AAT,2024.2.4,iPhone,50,https://run.pavlovia.org/LNS/hub/,AAT,,,,,25.808,26.226,,,,,,,,,,,,,,,,,,,,,,,,,,,,,,26.226,26.84,1,30,Onion rings,3,1,incompatible,Items_pictures/30_onion_rings.png,0.531,avoid,5.681246858,0.48,0,0.388034188,0.28974359,5.681246858,0.051,0,1,7,0,7,0,1,,,,
,,,Marie-testing-againandagainandagaaaaain,fr,2026-04-21_11h19.01.465,AAT,2024.2.4,iPhone,50,https://run.pavlovia.org/LNS/hub/,AAT,,,,,27.094,27.862,,,,,,,,,,,,,,,,,,,,,,,,,,,,,,27.863,28.576,1,9,Healthy cracker (Darvida),1,1,incompatible,Items_pictures/9_healthy_cracker.png,0.614,avoid,4.307692308,0.564,0,0.408547009,0.215384615,4.307692308,0.05,0,1,8,0,8,0,1,,,,
,,,Marie-testing-againandagainandagaaaaain,fr,2026-04-21_11h19.01.465,AAT,2024.2.4,iPhone,50,https://run.pavlovia.org/LNS/hub/,AAT,,,,,28.831,29.482,,,,,,,,,,,,,,,,,,,,,,,,,,,,,,29.483,30.147,1,47,Gummy candies,5,0,compatible,Items_pictures/47_gummy_candy.png,0.582,approach,5.773591488,0.533,0,0.388034162,0.282905983,4.779347104,0.049,0,1,9,0,9,0,1,,,,
,,,Marie-testing-againandagainandagaaaaain,fr,2026-04-21_11h19.01.465,AAT,2024.2.4,iPhone,50,https://run.pavlovia.org/LNS/hub/,AAT,,,,,30.401,30.919,,,,,,,,,,,,,,,,,,,,,,,,,,,,,,30.919,31.533,1,30,Onion rings,3,1,incompatible,Items_pictures/30_onion_rings.png,0.531,approach,5.58974359,0.481,0,0.407692334,0.279487179,5.367521889,0.05,0,1,10,0,10,0,1,,,,
,,,Marie-testing-againandagainandagaaaaain,fr,2026-04-21_11h19.01.465,AAT,2024.2.4,iPhone,50,https://run.pavlovia.org/LNS/hub/,AAT,,,,,31.787,32.271,,,,,,,,,,,,,,,,,,,,,,,,,,,,,,32.272,33.07,1,41,"Chocolate snacks (e.g. Kinder, Knoppers)",5,0,compatible,Items_pictures/41_chocolate_snack.png,0.731,approach,7.128568831,0.684,0,0.511965812,0.335042735,7.128568831,0.047,0,1,11,0,11,0,1,,,,
,,,Marie-testing-againandagainandagaaaaain,fr,2026-04-21_11h19.01.465,AAT,2024.2.4,iPhone,50,https://run.pavlovia.org/LNS/hub/,AAT,,,,,33.323,33.891,,,,,,,,,,,,,,,,,,,,,,,,,,,,,,33.891,34.574,1,10,"Dried fruits (apricot, mango)",1,0,compatible,Items_pictures/10_dried_fruits.png,0.598,approach,8.33980834,0.565,0,0.432478632,0.275213675,8.33980834,0.033,0,1,12,0,12,0,1,,,,
,,,Marie-testing-againandagainandagaaaaain,fr,2026-04-21_11h19.01.465,AAT,2024.2.4,iPhone,50,https://run.pavlovia.org/LNS/hub/,AAT,,,,,34.826,35.611,,,,,,,,,,,,,,,,,,,,,,,,,,,,,,35.611,36.209,1,5,Bell pepper,1,1,incompatible,Items_pictures/5_bell_pepper.png,0.514,avoid,5.911680912,0.466,0,0.411965812,0.283760684,5.911680912,0.048,0,1,13,0,13,0,1,,,,
,,,Marie-testing-againandagainandagaaaaain,fr,2026-04-21_11h19.01.465,AAT,2024.2.4,iPhone,50,https://run.pavlovia.org/LNS/hub/,AAT,,,,,36.463,37.063,,,,,,,,,,,,,,,,,,,,,,,,,,,,,,37.063,37.778,1,48,Sour candies,5,0,compatible,Items_pictures/48_sour_candy.png,0.632,approach,6.938159879,0.598,0,0.397435897,0.235897436,6.938159879,0.034,0,1,14,0,14,0,1,,,,
,,,Marie-testing-againandagainandagaaaaain,fr,2026-04-21_11h19.01.465,AAT,2024.2.4,iPhone,50,https://run.pavlovia.org/LNS/hub/,AAT,,,,,38.032,38.432,,,,,,,,,,,,,,,,,,,,,,,,,,,,,,38.433,39.003,1,17,"Salted nuts (Cashew, peanuts, pistacchios)",2,1,incompatible,Items_pictures/17_flips.png,0.498,avoid,9.074912016,0.464,0,0.404273504,0.308547009,9.074912016,0.034,0,1,15,0,15,0,1,,,,
,,,Marie-testing-againandagainandagaaaaain,fr,2026-04-21_11h19.01.465,AAT,2024.2.4,iPhone,50,https://run.pavlovia.org/LNS/hub/,AAT,,,,,39.268,39.935,,,,,,,,,,,,,,,,,,,,,,,,,,,,,,39.936,40.482,1,57,Fondant au chocolat,6,0,compatible,Items_pictures/57_fondant.png,0.464,approach,10.33912324,0.433,0,0.482051282,0.320512821,10.33912324,0.031,0,1,16,0,16,0,1,,,,
,,,Marie-testing-againandagainandagaaaaain,fr,2026-04-21_11h19.01.465,AAT,2024.2.4,iPhone,50,https://run.pavlovia.org/LNS/hub/,AAT,,,,,40.737,41.505,,,,,,,,,,,,,,,,,,,,,,,,,,,,,,41.505,42.103,1,5,Bell pepper,1,1,incompatible,Items_pictures/5_bell_pepper.png,0.514,avoid,8.49002849,0.484,0,0.299145325,0.254700855,6.324787194,0.03,0,1,17,0,17,0,1,,,,
,,,Marie-testing-againandagainandagaaaaain,fr,2026-04-21_11h19.01.465,AAT,2024.2.4,iPhone,50,https://run.pavlovia.org/LNS/hub/,AAT,,,,,42.357,42.974,,,,,,,,,,,,,,,,,,,,,,,,,,,,,,42.975,43.688,1,15,Flute,2,1,incompatible,Items_pictures/15_flute.png,0.631,avoid,5.215419501,0.582,1,0.411111059,0.255555556,6.192219413,0.049,0,1,18,0,18,0,1,,,,
,,,Marie-testing-againandagainandagaaaaain,fr,2026-04-21_11h19.01.465,AAT,2024.2.4,iPhone,50,https://run.pavlovia.org/LNS/hub/,AAT,,,,,43.943,44.611,,,,,,,,,,,,,,,,,,,,,,,,,,,,,,44.611,45.242,1,37,Pain au chocolat,4,0,compatible,Items_pictures/37_pain_chocolat.png,0.548,approach,7.591754651,0.514,0,0.382905983,0.258119658,7.591754651,0.034,0,1,19,0,19,0,1,,,,
,,,Marie-testing-againandagainandagaaaaain,fr,2026-04-21_11h19.01.465,AAT,2024.2.4,iPhone,50,https://run.pavlovia.org/LNS/hub/,AAT,,,,,45.496,46.164,,,,,,,,,,,,,,,,,,,,,,,,,,,,,,46.164,46.695,1,48,Sour candies,5,0,compatible,Items_pictures/48_sour_candy.png,0.447,approach,7.977207977,0.414,0,0.331623932,0.263247863,5.723905724,0.033,0,1,20,0,20,0,1,,,,
,,,Marie-testing-againandagainandagaaaaain,fr,2026-04-21_11h19.01.465,AAT,2024.2.4,iPhone,50,https://run.pavlovia.org/LNS/hub/,AAT,,,,,46.949,47.383,,,,,,,,,,,,,,,,,,,,,,,,,,,,,,47.383,47.981,1,51,Tiramisu,6,0,compatible,Items_pictures/51_tiramisu.png,0.515,approach,9.30115636,0.481,0,0.462393162,0.316239316,9.30115636,0.034,0,1,21,0,21,0,1,,,,
,,,Marie-testing-againandagainandagaaaaain,fr,2026-04-21_11h19.01.465,AAT,2024.2.4,iPhone,50,https://run.pavlovia.org/LNS/hub/,AAT,,,,,48.235,48.936,,,,,,,,,,,,,,,,,,,,,,,,,,,,,,48.937,49.568,1,11,Crisps,2,1,incompatible,Items_pictures/11_crisps.png,0.548,avoid,5.709401709,0.498,0,0.32991453,0.285470085,4.717948718,0.05,0,1,22,0,22,0,1,,,,
,,,Marie-testing-againandagainandagaaaaain,fr,2026-04-21_11h19.01.465,AAT,2024.2.4,iPhone,50,https://run.pavlovia.org/LNS/hub/,AAT,,,,,49.821,50.456,,,,,,,,,,,,,,,,,,,,,,,,,,,,,,50.456,51.708,1,4,Plain yogurt,1,0,compatible,Items_pictures/4_plain_yogurt.png,0.629,avoid,6.07580825,0.583,0,0.32991453,0.279487179,6.07580825,0.046,0,1,23,0,23,0,1,,,,
,,,Marie-testing-againandagainandagaaaaain,fr,2026-04-21_11h19.01.465,AAT,2024.2.4,iPhone,50,https://run.pavlovia.org/LNS/hub/,AAT,,,,,51.976,52.326,,,,,,,,,,,,,,,,,,,,,,,,,,,,,,52.326,53.108,1,54,Ice cream cone,6,0,compatible,Items_pictures/54_ice_cream.png,0.697,approach,7.044807045,0.664,0,0.373504274,0.232478632,7.044807045,0.033,0,1,24,0,24,0,1,,,,
,,,Marie-testing-againandagainandagaaaaain,fr,2026-04-21_11h19.01.465,AAT,2024.2.4,iPhone,50,https://run.pavlovia.org/LNS/hub/,AAT,,,,,53.362,54.03,,,,,,,,,,,,,,,,,,,,,,,,,,,,,,54.03,54.578,1,4,Plain yogurt,1,0,compatible,Items_pictures/4_plain_yogurt.png,0.464,approach,9.43019943,0.434,0,0.428205128,0.282905983,9.43019943,0.03,0,1,25,0,25,0,1,,,,
,,,Marie-testing-againandagainandagaaaaain,fr,2026-04-21_11h19.01.465,AAT,2024.2.4,iPhone,50,https://run.pavlovia.org/LNS/hub/,AAT,,,,,54.831,55.549,,,,,,,,,,,,,,,,,,,,,,,,,,,,,,55.55,56.281,1,57,Fondant au chocolat,6,0,compatible,Items_pictures/57_fondant.png,0.649,approach,8.019105078,0.615,0,0.441880342,0.272649573,8.019105078,0.034,0,1,26,0,26,0,1,,,,
,,,Marie-testing-againandagainandagaaaaain,fr,2026-04-21_11h19.01.465,AAT,2024.2.4,iPhone,50,https://run.pavlovia.org/LNS/hub/,AAT,,,,,56.535,57.303,,,,,,,,,,,,,,,,,,,,,,,,,,,,,,57.303,58.084,1,5,Bell pepper,1,1,incompatible,Items_pictures/5_bell_pepper.png,0.682,avoid,5.270655271,0.634,0,0.367521341,0.252991453,4.11324732,0.048,0,1,27,0,27,0,1,,,,
,,,Marie-testing-againandagainandagaaaaain,fr,2026-04-21_11h19.01.465,AAT,2024.2.4,iPhone,50,https://run.pavlovia.org/LNS/hub/,AAT,,,,,58.339,58.973,,,,,,,,,,,,,,,,,,,,,,,,,,,,,,58.973,59.938,1,37,Pain au chocolat,4,0,compatible,Items_pictures/37_pain_chocolat.png,0.883,approach,7.918552036,0.849,0,0.394017146,0.269230769,7.968830091,0.034,0,1,28,0,28,0,1,,,,
,,,Marie-testing-againandagainandagaaaaain,fr,2026-04-21_11h19.01.465,AAT,2024.2.4,iPhone,50,https://run.pavlovia.org/LNS/hub/,AAT,,,,,60.192,60.626,,,,,,,,,,,,,,,,,,,,,,,,,,,,,,60.627,61.309,1,30,Onion rings,3,1,incompatible,Items_pictures/30_onion_rings.png,0.581,avoid,7.318376068,0.549,0,0.321367495,0.234188034,5.422007732,0.032,0,1,29,0,29,0,1,,,,
,,,Marie-testing-againandagainandagaaaaain,fr,2026-04-21_11h19.01.465,AAT,2024.2.4,iPhone,50,https://run.pavlovia.org/LNS/hub/,AAT,,,,,61.561,61.929,,,,,,,,,,,,,,,,,,,,,,,,,,,,,,61.93,62.66,1,11,Crisps,2,1,incompatible,Items_pictures/11_crisps.png,0.631,avoid,6.490384615,0.599,0,0.339316239,0.207692308,5.235042735,0.032,0,1,30,0,30,0,1,,,,
,,,Marie-testing-againandagainandagaaaaain,fr,2026-04-21_11h19.01.465,AAT,2024.2.4,iPhone,50,https://run.pavlovia.org/LNS/hub/,AAT,,,,,62.915,63.566,,,,,,,,,,,,,,,,,,,,,,,,,,,,,,63.566,64.315,1,49,Chocolate cookies,5,0,compatible,Items_pictures/49_chocolate_cookie.png,0.648,approach,5.016722408,0.602,0,0.482051282,0.230769231,5.016722408,0.046,0,1,31,0,31,0,1,,,,
,,,Marie-testing-againandagainandagaaaaain,fr,2026-04-21_11h19.01.465,AAT,2024.2.4,iPhone,50,https://run.pavlovia.org/LNS/hub/,AAT,,,,,64.568,65.137,,,,,,,,,,,,,,,,,,,,,,,,,,,,,,65.137,65.733,1,41,"Chocolate snacks (e.g. Kinder, Knoppers)",5,0,compatible,Items_pictures/41_chocolate_snack.png,0.502,approach,4.574232352,0.448,0,0.444444444,0.247008547,4.574232352,0.054,0,1,32,0,32,0,1,,,,
,,,Marie-testing-againandagainandagaaaaain,fr,2026-04-21_11h19.01.465,AAT,2024.2.4,iPhone,50,https://run.pavlovia.org/LNS/hub/,AAT,,,,,65.988,66.455,,,,,,,,,,,,,,,,,,,,,,,,,,,,,,66.456,66.97,1,37,Pain au chocolat,4,0,compatible,Items_pictures/37_pain_chocolat.png,0.448,approach,7.56661639,0.414,0,0.39743595,0.257264957,8.069383133,0.034,0,1,33,0,33,0,1,,,,
,,,Marie-testing-againandagainandagaaaaain,fr,2026-04-21_11h19.01.465,AAT,2024.2.4,iPhone,50,https://run.pavlovia.org/LNS/hub/,AAT,,,,,67.224,67.607,,,,,,,,,,,,,,,,,,,,,,,,,,,,,,67.608,68.372,1,22,Pizza (vegetarian),3,1,incompatible,Items_pictures/22_veg_pizza.png,0.665,avoid,4.665242165,0.617,0,0.364102564,0.223931624,4.665242165,0.048,0,1,34,0,34,0,1,,,,
,,,Marie-testing-againandagainandagaaaaain,fr,2026-04-21_11h19.01.465,AAT,2024.2.4,iPhone,50,https://run.pavlovia.org/LNS/hub/,AAT,,,,,68.626,69.077,,,,,,,,,,,,,,,,,,,,,,,,,,,,,,69.078,70.329,1,35,Foccacia,4,1,incompatible,Items_pictures/35_focaccia.png,0.614,avoid,4.444444444,0.564,0,0.271794846,0.222222222,3.521367,0.05,0,1,35,0,35,0,1,,,,
,,,Marie-testing-againandagainandagaaaaain,fr,2026-04-21_11h19.01.465,AAT,2024.2.4,iPhone,50,https://run.pavlovia.org/LNS/hub/,AAT,,,,,70.596,71.163,,,,,,,,,,,,,,,,,,,,,,,,,,,,,,71.164,72.095,1,10,"Dried fruits (apricot, mango)",1,0,compatible,Items_pictures/10_dried_fruits.png,0.514,avoid,3.316749585,0.447,1,0.960683761,0.222222222,3.316749585,0.067,0,1,36,0,36,0,1,,,,
,,,Marie-testing-againandagainandagaaaaain,fr,2026-04-21_11h19.01.465,AAT,2024.2.4,iPhone,50,https://run.pavlovia.org/LNS/hub/,AAT,,,,,72.349,72.7,,,,,,,,,,,,,,,,,,,,,,,,,,,,,,72.7,73.315,1,59,Cheesecake,6,0,compatible,Items_pictures/59_cheesecake.png,0.514,approach,4.358974359,0.464,0,0.501709402,0.217948718,4.358974359,0.05,0,1,37,0,37,0,1,,,,
,,,Marie-testing-againandagainandagaaaaain,fr,2026-04-21_11h19.01.465,AAT,2024.2.4,iPhone,50,https://run.pavlovia.org/LNS/hub/,AAT,,,,,73.568,74.337,,,,,,,,,,,,,,,,,,,,,,,,,,,,,,74.341,74.951,1,54,Ice cream cone,6,0,compatible,Items_pictures/54_ice_cream.png,0.532,approach,5.538461538,0.482,0,0.421367521,0.276923077,5.538461538,0.05,0,1,38,0,38,0,1,,,,
,,,Marie-testing-againandagainandagaaaaain,fr,2026-04-21_11h19.01.465,AAT,2024.2.4,iPhone,50,https://run.pavlovia.org/LNS/hub/,AAT,,,,,75.205,75.806,,,,,,,,,,,,,,,,,,,,,,,,,,,,,,75.806,76.387,1,47,Gummy candies,5,0,compatible,Items_pictures/47_gummy_candy.png,0.497,approach,6.449106449,0.464,0,0.409401683,0.212820513,5.905205115,0.033,0,1,39,0,39,0,1,,,,
,,,Marie-testing-againandagainandagaaaaain,fr,2026-04-21_11h19.01.465,AAT,2024.2.4,iPhone,50,https://run.pavlovia.org/LNS/hub/,AAT,,,,,76.641,76.941,,,,,,,,,,,,,,,,,,,,,,,,,,,,,,76.941,77.639,1,22,Pizza (vegetarian),3,1,incompatible,Items_pictures/22_veg_pizza.png,0.598,avoid,4.960616725,0.547,0,0.453846154,0.252991453,4.960616725,0.051,0,1,40,0,40,0,1,,,,
,,,Marie-testing-againandagainandagaaaaain,fr,2026-04-21_11h19.01.465,AAT,2024.2.4,iPhone,50,https://run.pavlovia.org/LNS/hub/,AAT,,,,,77.894,78.377,,,,,,,,,,,,,,,,,,,,,,,,,,,,,,78.378,79.63,1,17,"Salted nuts (Cashew, peanuts, pistacchios)",2,1,incompatible,Items_pictures/17_flips.png,0.48,avoid,8.326440585,0.449,0,0.258119658,0.258119658,8.326440585,0.031,0,1,41,0,41,0,1,,,,
,,,Marie-testing-againandagainandagaaaaain,fr,2026-04-21_11h19.01.465,AAT,2024.2.4,iPhone,50,https://run.pavlovia.org/LNS/hub/,AAT,,,,,79.88,80.281,,,,,,,,,,,,,,,,,,,,,,,,,,,,,,80.281,81.079,1,10,"Dried fruits (apricot, mango)",1,0,compatible,Items_pictures/10_dried_fruits.png,0.715,approach,7.918552036,0.681,0,0.392307692,0.269230769,7.918552036,0.034,0,1,42,0,42,0,1,,,,
,,,Marie-testing-againandagainandagaaaaain,fr,2026-04-21_11h19.01.465,AAT,2024.2.4,iPhone,50,https://run.pavlovia.org/LNS/hub/,AAT,,,,,81.333,81.767,,,,,,,,,,,,,,,,,,,,,,,,,,,,,,81.767,82.448,1,28,Burger (vegetarian),3,1,incompatible,Items_pictures/28_veg_burger.png,0.581,avoid,4.735042735,0.531,0,0.429059829,0.236752137,4.735042735,0.05,0,1,43,0,43,0,1,,,,
,,,Marie-testing-againandagainandagaaaaain,fr,2026-04-21_11h19.01.465,AAT,2024.2.4,iPhone,50,https://run.pavlovia.org/LNS/hub/,AAT,,,,,82.702,83.019,,,,,,,,,,,,,,,,,,,,,,,,,,,,,,83.019,83.799,1,40,Tresse,4,0,compatible,Items_pictures/40_tresse.png,0.698,approach,9.686609687,0.665,0,0.452136752,0.31965812,10.36001036,0.033,0,1,44,0,44,0,1,,,,
,,,Marie-testing-againandagainandagaaaaain,fr,2026-04-21_11h19.01.465,AAT,2024.2.4,iPhone,50,https://run.pavlovia.org/LNS/hub/,AAT,,,,,84.054,84.505,,,,,,,,,,,,,,,,,,,,,,,,,,,,,,84.505,85.052,1,51,Tiramisu,6,0,compatible,Items_pictures/51_tiramisu.png,0.464,approach,7.077991453,0.432,0,0.342735069,0.226495726,5.902778593,0.032,0,1,45,0,45,0,1,,,,
,,,Marie-testing-againandagainandagaaaaain,fr,2026-04-21_11h19.01.465,AAT,2024.2.4,iPhone,50,https://run.pavlovia.org/LNS/hub/,AAT,,,,,85.306,85.974,,,,,,,,,,,,,,,,,,,,,,,,,,,,,,85.975,86.572,1,12,Crisps,2,1,incompatible,Items_pictures/12_crisps.png,0.514,avoid,9.93221338,0.485,0,0.38632476,0.288034188,9.283818729,0.029,0,1,46,0,46,0,1,,,,
,,,Marie-testing-againandagainandagaaaaain,fr,2026-04-21_11h19.01.465,AAT,2024.2.4,iPhone,50,https://run.pavlovia.org/LNS/hub/,AAT,,,,,86.826,87.594,,,,,,,,,,,,,,,,,,,,,,,,,,,,,,87.594,88.846,1,15,Flute,2,1,incompatible,Items_pictures/15_flute.png,0.614,avoid,4.52991453,0.564,0,0.275213701,0.226495726,4.444444966,0.05,0,1,47,0,47,0,1,,,,
,,,Marie-testing-againandagainandagaaaaain,fr,2026-04-21_11h19.01.465,AAT,2024.2.4,iPhone,50,https://run.pavlovia.org/LNS/hub/,AAT,,,,,89.097,89.614,,,,,,,,,,,,,,,,,,,,,,,,,,,,,,89.615,90.213,1,31,Croissant,4,0,compatible,Items_pictures/31_croissant.png,0.514,approach,15.85944919,0.496,0,0.36581194,0.285470085,14.52991308,0.018,0,1,48,0,48,0,1,,,,
,,,Marie-testing-againandagainandagaaaaain,fr,2026-04-21_11h19.01.465,AAT,2024.2.4,iPhone,50,https://run.pavlovia.org/LNS/hub/,AAT,,,,,90.467,90.934,,,,,,,,,,,,,,,,,,,,,,,,,,,,,,90.934,91.448,1,51,Tiramisu,6,0,compatible,Items_pictures/51_tiramisu.png,0.431,approach,14.79004088,0.408,0,0.549572623,0.34017094,13.67521254,0.023,0,1,49,0,49,0,1,,,,
,,,Marie-testing-againandagainandagaaaaain,fr,2026-04-21_11h19.01.465,AAT,2024.2.4,iPhone,50,https://run.pavlovia.org/LNS/hub/,AAT,,,,,91.702,92.02,,,,,,,,,,,,,,,,,,,,,,,,,,,,,,92.024,92.567,1,48,Sour candies,5,0,compatible,Items_pictures/48_sour_candy.png,0.48,approach,25.01124606,0.461,0,0.433333307,0.475213675,22.80701617,0.019,0,1,50,0,50,0,1,,,,
,,,Marie-testing-againandagainandagaaaaain,fr,2026-04-21_11h19.01.465,AAT,2024.2.4,iPhone,50,https://run.pavlovia.org/LNS/hub/,AAT,,,,,92.822,93.539,,,,,,,,,,,,,,,,,,,,,,,,,,,,,,93.54,94.153,1,31,Croissant,4,0,compatible,Items_pictures/31_croissant.png,0.531,approach,21.82336182,0.516,0,0.582906009,0.327350427,20.74074248,0.015,0,1,51,0,51,0,1,,,,
,,,Marie-testing-againandagainandagaaaaain,fr,2026-04-21_11h19.01.465,AAT,2024.2.4,iPhone,50,https://run.pavlovia.org/LNS/hub/,AAT,,,,,94.408,94.708,,,,,,,,,,,,,,,,,,,,,,,,,,,,,,94.709,95.356,1,35,Foccacia,4,1,incompatible,Items_pictures/35_focaccia.png,0.565,avoid,7.772435897,0.533,0,0.405128205,0.248717949,7.772435897,0.032,0,1,52,0,52,0,1,,,,
,,,Marie-testing-againandagainandagaaaaain,fr,2026-04-21_11h19.01.465,AAT,2024.2.4,iPhone,50,https://run.pavlovia.org/LNS/hub/,AAT,,,,,95.61,96.362,,,,,,,,,,,,,,,,,,,,,,,,,,,,,,96.362,96.926,1,11,Crisps,2,1,incompatible,Items_pictures/11_crisps.png,0.481,avoid,7.252007252,0.448,0,0.369230743,0.239316239,6.371405581,0.033,0,1,53,0,53,0,1,,,,
,,,Marie-testing-againandagainandagaaaaain,fr,2026-04-21_11h19.01.465,AAT,2024.2.4,iPhone,50,https://run.pavlovia.org/LNS/hub/,AAT,,,,,97.18,97.565,,,,,,,,,,,,,,,,,,,,,,,,,,,,,,97.565,98.114,1,17,"Salted nuts (Cashew, peanuts, pistacchios)",2,1,incompatible,Items_pictures/17_flips.png,0.464,avoid,9.873268494,0.435,0,0.364957265,0.286324786,9.873268494,0.029,0,1,54,0,54,0,1,,,,
,,,Marie-testing-againandagainandagaaaaain,fr,2026-04-21_11h19.01.465,AAT,2024.2.4,iPhone,50,https://run.pavlovia.org/LNS/hub/,AAT,,,,,98.366,98.733,,,,,,,,,,,,,,,,,,,,,,,,,,,,,,98.733,99.986,1,12,Crisps,2,1,incompatible,Items_pictures/12_crisps.png,0.465,avoid,10.96374889,0.436,0,0.224786325,0.317948718,7.751252579,0.029,0,1,55,0,55,0,1,,,,
,,,Marie-testing-againandagainandagaaaaain,fr,2026-04-21_11h19.01.465,AAT,2024.2.4,iPhone,50,https://run.pavlovia.org/LNS/hub/,AAT,,,,,100.236,100.955,,,,,,,,,,,,,,,,,,,,,,,,,,,,,,100.955,101.536,1,4,Plain yogurt,1,0,compatible,Items_pictures/4_plain_yogurt.png,0.514,approach,8.672699849,0.48,0,0.463247863,0.294871795,8.672699849,0.034,0,1,56,0,56,0,1,,,,
,,,Marie-testing-againandagainandagaaaaain,fr,2026-04-21_11h19.01.465,AAT,2024.2.4,iPhone,50,https://run.pavlovia.org/LNS/hub/,AAT,,,,,101.79,102.474,,,,,,,,,,,,,,,,,,,,,,,,,,,,,,102.475,103.19,1,30,Onion rings,3,1,incompatible,Items_pictures/30_onion_rings.png,0.631,avoid,5.811965812,0.581,0,0.373504274,0.290598291,5.811965812,0.05,0,1,57,0,57,0,1,,,,
,,,Marie-testing-againandagainandagaaaaain,fr,2026-04-21_11h19.01.465,AAT,2024.2.4,iPhone,50,https://run.pavlovia.org/LNS/hub/,AAT,,,,,103.443,103.877,,,,,,,,,,,,,,,,,,,,,,,,,,,,,,103.878,104.608,1,59,Cheesecake,6,0,compatible,Items_pictures/59_cheesecake.png,0.633,approach,6.561085973,0.599,0,0.455555556,0.223076923,6.561085973,0.034,0,1,58,0,58,0,1,,,,
,,,Marie-testing-againandagainandagaaaaain,fr,2026-04-21_11h19.01.465,AAT,2024.2.4,iPhone,50,https://run.pavlovia.org/LNS/hub/,AAT,,,,,104.863,105.163,,,,,,,,,,,,,,,,,,,,,,,,,,,,,,105.164,105.845,1,17,"Salted nuts (Cashew, peanuts, pistacchios)",2,1,incompatible,Items_pictures/17_flips.png,0.582,avoid,4.273504274,0.532,0,0.400854701,0.213675214,4.273504274,0.05,0,1,59,0,59,0,1,,,,
,,,Marie-testing-againandagainandagaaaaain,fr,2026-04-21_11h19.01.465,AAT,2024.2.4,iPhone,50,https://run.pavlovia.org/LNS/hub/,AAT,,,,,113.05,113.782,,,,,,,,,,,,,,,,,,,,,,,,,,,,111.8,112.463,113.782,114.53,2,5,Bell pepper,1,1,compatible,Items_pictures/5_bell_pepper.png,0.665,approach,10.17871018,0.632,0,0.491453044,0.335897436,10.28231186,0.033,0,1,0,0,0,0,1,106.1,111.8,,
,,,Marie-testing-againandagainandagaaaaain,fr,2026-04-21_11h19.01.465,AAT,2024.2.4,iPhone,50,https://run.pavlovia.org/LNS/hub/,AAT,,,,,114.784,115.084,,,,,,,,,,,,,,,,,,,,,,,,,,,,,,115.085,115.699,2,22,Pizza (vegetarian),3,1,compatible,Items_pictures/22_veg_pizza.png,0.532,approach,12.61940674,0.515,0,0.398290598,0.214529915,12.61940674,0.017,0,1,1,0,1,0,1,,,,
,,,Marie-testing-againandagainandagaaaaain,fr,2026-04-21_11h19.01.465,AAT,2024.2.4,iPhone,50,https://run.pavlovia.org/LNS/hub/,AAT,,,,,115.953,116.27,,,,,,,,,,,,,,,,,,,,,,,,,,,,,,116.27,116.985,2,57,Fondant au chocolat,6,0,incompatible,Items_pictures/57_fondant.png,0.615,avoid,6.552706553,0.582,0,0.441025641,0.216239316,6.552706553,0.033,0,1,2,0,2,0,1,,,,
,,,Marie-testing-againandagainandagaaaaain,fr,2026-04-21_11h19.01.465,AAT,2024.2.4,iPhone,50,https://run.pavlovia.org/LNS/hub/,AAT,,,,,117.239,117.991,,,,,,,,,,,,,,,,,,,,,,,,,,,,,,117.991,118.639,2,59,Cheesecake,6,0,incompatible,Items_pictures/59_cheesecake.png,0.549,avoid,5.932629462,0.515,0,0.406837607,0.201709402,5.932629462,0.034,0,1,3,0,3,0,1,,,,
,,,Marie-testing-againandagainandagaaaaain,fr,2026-04-21_11h19.01.465,AAT,2024.2.4,iPhone,50,https://run.pavlovia.org/LNS/hub/,AAT,,,,,118.892,119.628,,,,,,,,,,,,,,,,,,,,,,,,,,,,,,119.628,120.196,2,41,"Chocolate snacks (e.g. Kinder, Knoppers)",5,0,incompatible,Items_pictures/41_chocolate_snack.png,0.48,avoid,14.52991453,0.46,0,0.34957265,0.290598291,12.99145299,0.02,0,1,4,0,4,0,1,,,,
,,,Marie-testing-againandagainandagaaaaain,fr,2026-04-21_11h19.01.465,AAT,2024.2.4,iPhone,50,https://run.pavlovia.org/LNS/hub/,AAT,,,,,120.463,121.097,,,,,,,,,,,,,,,,,,,,,,,,,,,,,,121.097,121.644,2,59,Cheesecake,6,0,incompatible,Items_pictures/59_cheesecake.png,0.465,avoid,8.295625943,0.431,0,0.416239316,0.282051282,7.742584213,0.034,0,1,5,0,5,0,1,,,,
,,,Marie-testing-againandagainandagaaaaain,fr,2026-04-21_11h19.01.465,AAT,2024.2.4,iPhone,50,https://run.pavlovia.org/LNS/hub/,AAT,,,,,121.899,122.383,,,,,,,,,,,,,,,,,,,,,,,,,,,,,,122.384,122.965,2,48,Sour candies,5,0,incompatible,Items_pictures/48_sour_candy.png,0.482,avoid,4.759510642,0.431,0,0.380341854,0.242735043,4.072397679,0.051,0,1,6,0,6,0,1,,,,
,,,Marie-testing-againandagainandagaaaaain,fr,2026-04-21_11h19.01.465,AAT,2024.2.4,iPhone,50,https://run.pavlovia.org/LNS/hub/,AAT,,,,,123.219,123.886,,,,,,,,,,,,,,,,,,,,,,,,,,,,,,123.886,124.657,2,47,Gummy candies,5,0,incompatible,Items_pictures/47_gummy_candy.png,0.682,avoid,8.90960891,0.649,0,0.363247863,0.294017094,8.90960891,0.033,0,1,7,0,7,0,1,,,,
,,,Marie-testing-againandagainandagaaaaain,fr,2026-04-21_11h19.01.465,AAT,2024.2.4,iPhone,50,https://run.pavlovia.org/LNS/hub/,AAT,,,,,124.922,125.339,,,,,,,,,,,,,,,,,,,,,,,,,,,,,,125.339,126.053,2,28,Burger (vegetarian),3,1,compatible,Items_pictures/28_veg_burger.png,0.647,approach,16.08848668,0.63,0,0.363247889,0.273504274,13.52438565,0.017,0,1,8,0,8,0,1,,,,
,,,Marie-testing-againandagainandagaaaaain,fr,2026-04-21_11h19.01.465,AAT,2024.2.4,iPhone,50,https://run.pavlovia.org/LNS/hub/,AAT,,,,,126.308,126.642,,,,,,,,,,,,,,,,,,,,,,,,,,,,,,126.643,127.196,2,35,Foccacia,4,1,compatible,Items_pictures/35_focaccia.png,0.481,approach,9.588675214,0.449,0,0.382051282,0.306837607,9.588675214,0.032,0,1,9,0,9,0,1,,,,
,,,Marie-testing-againandagainandagaaaaain,fr,2026-04-21_11h19.01.465,AAT,2024.2.4,iPhone,50,https://run.pavlovia.org/LNS/hub/,AAT,,,,,127.461,127.944,,,,,,,,,,,,,,,,,,,,,,,,,,,,,,127.945,128.575,2,54,Ice cream cone,6,0,incompatible,Items_pictures/54_ice_cream.png,0.547,avoid,7.217473884,0.511,0,0.328205102,0.25982906,6.315288924,0.036,0,1,10,0,10,0,1,,,,
,,,Marie-testing-againandagainandagaaaaain,fr,2026-04-21_11h19.01.465,AAT,2024.2.4,iPhone,50,https://run.pavlovia.org/LNS/hub/,AAT,,,,,128.83,129.331,,,,,,,,,,,,,,,,,,,,,,,,,,,,,,129.331,129.995,2,48,Sour candies,5,0,incompatible,Items_pictures/48_sour_candy.png,0.565,avoid,6.672180866,0.534,0,0.382905983,0.206837607,6.672180866,0.031,0,1,11,0,11,0,1,,,,
,,,Marie-testing-againandagainandagaaaaain,fr,2026-04-21_11h19.01.465,AAT,2024.2.4,iPhone,50,https://run.pavlovia.org/LNS/hub/,AAT,,,,,130.249,130.733,,,,,,,,,,,,,,,,,,,,,,,,,,,,,,130.733,131.515,2,25,French fries,3,1,compatible,Items_pictures/25_fries.png,0.698,approach,0.868321585,0.447,1,0.578632479,0.217948718,1.4948752,0.251,0,1,12,0,12,0,1,,,,
,,,Marie-testing-againandagainandagaaaaain,fr,2026-04-21_11h19.01.465,AAT,2024.2.4,iPhone,50,https://run.pavlovia.org/LNS/hub/,AAT,,,,,131.769,132.369,,,,,,,,,,,,,,,,,,,,,,,,,,,,,,132.37,133.051,2,4,Plain yogurt,1,0,incompatible,Items_pictures/4_plain_yogurt.png,0.582,avoid,4.820512821,0.532,0,0.397435897,0.241025641,4.820512821,0.05,0,1,13,0,13,0,1,,,,
,,,Marie-testing-againandagainandagaaaaain,fr,2026-04-21_11h19.01.465,AAT,2024.2.4,iPhone,50,https://run.pavlovia.org/LNS/hub/,AAT,,,,,133.304,133.721,,,,,,,,,,,,,,,,,,,,,,,,,,,,,,133.722,134.974,2,10,"Dried fruits (apricot, mango)",1,0,incompatible,Items_pictures/10_dried_fruits.png,0.697,avoid,7.8995079,0.664,0,0.316239316,0.260683761,6.915306915,0.033,0,1,14,0,14,0,1,,,,
,,,Marie-testing-againandagainandagaaaaain,fr,2026-04-21_11h19.01.465,AAT,2024.2.4,iPhone,50,https://run.pavlovia.org/LNS/hub/,AAT,,,,,135.224,135.558,,,,,,,,,,,,,,,,,,,,,,,,,,,,,,135.558,136.206,2,54,Ice cream cone,6,0,incompatible,Items_pictures/54_ice_cream.png,0.564,avoid,6.730769231,0.532,0,0.318803393,0.215384615,4.380341065,0.032,0,1,15,0,15,0,1,,,,
,,,Marie-testing-againandagainandagaaaaain,fr,2026-04-21_11h19.01.465,AAT,2024.2.4,iPhone,50,https://run.pavlovia.org/LNS/hub/,AAT,,,,,136.46,137.027,,,,,,,,,,,,,,,,,,,,,,,,,,,,,,137.028,137.659,2,31,Croissant,4,0,incompatible,Items_pictures/31_croissant.png,0.532,avoid,4.422737756,0.469,0,0.401709402,0.278632479,4.422737756,0.063,0,1,16,0,16,0,1,,,,
,,,Marie-testing-againandagainandagaaaaain,fr,2026-04-21_11h19.01.465,AAT,2024.2.4,iPhone,50,https://run.pavlovia.org/LNS/hub/,AAT,,,,,137.912,138.347,,,,,,,,,,,,,,,,,,,,,,,,,,,,,,138.347,139.045,2,35,Foccacia,4,1,compatible,Items_pictures/35_focaccia.png,0.598,approach,6.837606838,0.565,0,0.477777778,0.225641026,6.837606838,0.033,0,1,17,0,17,0,1,,,,
,,,Marie-testing-againandagainandagaaaaain,fr,2026-04-21_11h19.01.465,AAT,2024.2.4,iPhone,50,https://run.pavlovia.org/LNS/hub/,AAT,,,,,139.298,139.766,,,,,,,,,,,,,,,,,,,,,,,,,,,,,,139.766,140.414,2,41,"Chocolate snacks (e.g. Kinder, Knoppers)",5,0,incompatible,Items_pictures/41_chocolate_snack.png,0.549,avoid,5.634048491,0.5,0,0.348717975,0.276068376,4.535147925,0.049,0,1,18,0,18,0,1,,,,
,,,Marie-testing-againandagainandagaaaaain,fr,2026-04-21_11h19.01.465,AAT,2024.2.4,iPhone,50,https://run.pavlovia.org/LNS/hub/,AAT,,,,,140.668,141.268,,,,,,,,,,,,,,,,,,,,,,,,,,,,,,141.269,141.9,2,30,Onion rings,3,1,compatible,Items_pictures/30_onion_rings.png,0.548,approach,5.773591488,0.499,0,0.418803419,0.282905983,5.773591488,0.049,0,1,19,0,19,0,1,,,,
,,,Marie-testing-againandagainandagaaaaain,fr,2026-04-21_11h19.01.465,AAT,2024.2.4,iPhone,50,https://run.pavlovia.org/LNS/hub/,AAT,,,,,142.153,142.704,,,,,,,,,,,,,,,,,,,,,,,,,,,,,,142.705,143.368,2,11,Crisps,2,1,compatible,Items_pictures/11_crisps.png,0.599,approach,13.32327803,0.582,0,0.376923051,0.226495726,12.16691651,0.017,0,1,20,0,20,0,1,,,,
,,,Marie-testing-againandagainandagaaaaain,fr,2026-04-21_11h19.01.465,AAT,2024.2.4,iPhone,50,https://run.pavlovia.org/LNS/hub/,AAT,,,,,143.623,144.057,,,,,,,,,,,,,,,,,,,,,,,,,,,,,,144.058,144.687,2,41,"Chocolate snacks (e.g. Kinder, Knoppers)",5,0,incompatible,Items_pictures/41_chocolate_snack.png,0.531,avoid,5.644586895,0.483,0,0.358974359,0.270940171,4.540598291,0.048,0,1,21,0,21,0,1,,,,
,,,Marie-testing-againandagainandagaaaaain,fr,2026-04-21_11h19.01.465,AAT,2024.2.4,iPhone,50,https://run.pavlovia.org/LNS/hub/,AAT,,,,,144.941,145.594,,,,,,,,,,,,,,,,,,,,,,,,,,,,,,145.594,146.308,2,37,Pain au chocolat,4,0,incompatible,Items_pictures/37_pain_chocolat.png,0.615,approach,4.971219257,0.566,0,0.372649573,0.243589744,4.971219257,0.049,0,1,22,0,22,0,1,,,,
,,,Marie-testing-againandagainandagaaaaain,fr,2026-04-21_11h19.01.465,AAT,2024.2.4,iPhone,50,https://run.pavlovia.org/LNS/hub/,AAT,,,,,146.576,146.929,,,,,,,,,,,,,,,,,,,,,,,,,,,,,,146.93,147.561,2,10,"Dried fruits (apricot, mango)",1,0,incompatible,Items_pictures/10_dried_fruits.png,0.548,avoid,5.564276993,0.499,0,0.421367521,0.272649573,5.564276993,0.049,0,1,23,0,23,0,1,,,,
,,,Marie-testing-againandagainandagaaaaain,fr,2026-04-21_11h19.01.465,AAT,2024.2.4,iPhone,50,https://run.pavlovia.org/LNS/hub/,AAT,,,,,147.814,148.432,,,,,,,,,,,,,,,,,,,,,,,,,,,,,,148.432,149.684,2,10,"Dried fruits (apricot, mango)",1,0,incompatible,Items_pictures/10_dried_fruits.png,0.581,avoid,8.131868132,0.546,0,0.298290572,0.284615385,7.228326483,0.035,0,1,24,0,24,0,1,,,,
,,,Marie-testing-againandagainandagaaaaain,fr,2026-04-21_11h19.01.465,AAT,2024.2.4,iPhone,50,https://run.pavlovia.org/LNS/hub/,AAT,,,,,149.935,150.703,,,,,,,,,,,,,,,,,,,,,,,,,,,,,,150.703,151.217,2,10,"Dried fruits (apricot, mango)",1,0,incompatible,Items_pictures/10_dried_fruits.png,0.431,avoid,6.517094017,0.383,0,0.407692308,0.312820513,6.517094017,0.048,0,1,25,0,25,0,1,,,,
,,,Marie-testing-againandagainandagaaaaain,fr,2026-04-21_11h19.01.465,AAT,2024.2.4,iPhone,50,https://run.pavlovia.org/LNS/hub/,AAT,,,,,151.471,152.038,,,,,,,,,,,,,,,,,,,,,,,,,,,,,,152.038,152.786,2,30,Onion rings,3,1,compatible,Items_pictures/30_onion_rings.png,0.665,approach,9.230769231,0.635,0,0.413675214,0.276923077,9.230769231,0.03,0,1,26,0,26,0,1,,,,
,,,Marie-testing-againandagainandagaaaaain,fr,2026-04-21_11h19.01.465,AAT,2024.2.4,iPhone,50,https://run.pavlovia.org/LNS/hub/,AAT,,,,,153.04,153.791,,,,,,,,,,,,,,,,,,,,,,,,,,,,,,153.791,154.456,2,10,"Dried fruits (apricot, mango)",1,0,incompatible,Items_pictures/10_dried_fruits.png,0.581,avoid,4.918890633,0.532,0,0.351282025,0.241025641,4.064189246,0.049,0,1,27,0,27,0,1,,,,
,,,Marie-testing-againandagainandagaaaaain,fr,2026-04-21_11h19.01.465,AAT,2024.2.4,iPhone,50,https://run.pavlovia.org/LNS/hub/,AAT,,,,,154.709,155.16,,,,,,,,,,,,,,,,,,,,,,,,,,,,,,155.16,156.413,2,37,Pain au chocolat,4,0,incompatible,Items_pictures/37_pain_chocolat.png,0.614,avoid,5.437352246,0.567,0,0.352991453,0.255555556,5.437352246,0.047,0,1,28,0,28,0,1,,,,
,,,Marie-testing-againandagainandagaaaaain,fr,2026-04-21_11h19.01.465,AAT,2024.2.4,iPhone,50,https://run.pavlovia.org/LNS/hub/,AAT,,,,,156.663,157.197,,,,,,,,,,,,,,,,,,,,,,,,,,,,,,157.198,157.879,2,17,"Salted nuts (Cashew, peanuts, pistacchios)",2,1,compatible,Items_pictures/17_flips.png,0.614,approach,9.065009065,0.581,0,0.4,0.299145299,9.065009065,0.033,0,1,29,0,29,0,1,,,,
,,,Marie-testing-againandagainandagaaaaain,fr,2026-04-21_11h19.01.465,AAT,2024.2.4,iPhone,50,https://run.pavlovia.org/LNS/hub/,AAT,,,,,158.133,158.901,,,,,,,,,,,,,,,,,,,,,,,,,,,,,,158.901,159.566,2,37,Pain au chocolat,4,0,incompatible,Items_pictures/37_pain_chocolat.png,0.565,avoid,5.090218424,0.52,0,0.365811966,0.229059829,5.090218424,0.045,0,1,30,0,30,0,1,,,,
,,,Marie-testing-againandagainandagaaaaain,fr,2026-04-21_11h19.01.465,AAT,2024.2.4,iPhone,50,https://run.pavlovia.org/LNS/hub/,AAT,,,,,159.82,160.404,,,,,,,,,,,,,,,,,,,,,,,,,,,,,,160.404,161.102,2,49,Chocolate cookies,5,0,incompatible,Items_pictures/49_chocolate_cookie.png,0.581,avoid,6.105006105,0.546,0,0.393162419,0.213675214,5.299146044,0.035,0,1,31,0,31,0,1,,,,
,,,Marie-testing-againandagainandagaaaaain,fr,2026-04-21_11h19.01.465,AAT,2024.2.4,iPhone,50,https://run.pavlovia.org/LNS/hub/,AAT,,,,,161.356,161.94,,,,,,,,,,,,,,,,,,,,,,,,,,,,,,161.941,162.755,2,30,Onion rings,3,1,compatible,Items_pictures/30_onion_rings.png,0.582,avoid,2.595372108,0.5,1,0.854700855,0.212820513,2.595372108,0.082,0,1,32,0,32,0,1,,,,
,,,Marie-testing-againandagainandagaaaaain,fr,2026-04-21_11h19.01.465,AAT,2024.2.4,iPhone,50,https://run.pavlovia.org/LNS/hub/,AAT,,,,,163.009,163.777,,,,,,,,,,,,,,,,,,,,,,,,,,,,,,163.778,164.308,2,9,Healthy cracker (Darvida),1,1,compatible,Items_pictures/9_healthy_cracker.png,0.447,approach,22.06196581,0.431,0,0.342735043,0.352991453,11.16452991,0.016,0,1,33,0,33,0,1,,,,
,,,Marie-testing-againandagainandagaaaaain,fr,2026-04-21_11h19.01.465,AAT,2024.2.4,iPhone,50,https://run.pavlovia.org/LNS/hub/,AAT,,,,,164.562,165.28,,,,,,,,,,,,,,,,,,,,,,,,,,,,,,165.28,165.978,2,47,Gummy candies,5,0,incompatible,Items_pictures/47_gummy_candy.png,0.612,avoid,4.234654235,0.546,0,0.411965812,0.279487179,4.234654235,0.066,0,1,34,0,34,0,1,,,,
,,,Marie-testing-againandagainandagaaaaain,fr,2026-04-21_11h19.01.465,AAT,2024.2.4,iPhone,50,https://run.pavlovia.org/LNS/hub/,AAT,,,,,166.232,166.799,,,,,,,,,,,,,,,,,,,,,,,,,,,,,,166.799,167.413,2,9,Healthy cracker (Darvida),1,1,compatible,Items_pictures/9_healthy_cracker.png,0.514,approach,7.150997151,0.484,0,0.462393162,0.214529915,6.581196581,0.03,0,1,35,0,35,0,1,,,,
,,,Marie-testing-againandagainandagaaaaain,fr,2026-04-21_11h19.01.465,AAT,2024.2.4,iPhone,50,https://run.pavlovia.org/LNS/hub/,AAT,,,,,167.667,168.401,,,,,,,,,,,,,,,,,,,,,,,,,,,,,,168.402,169.016,2,30,Onion rings,3,1,compatible,Items_pictures/30_onion_rings.png,0.532,approach,7.368110816,0.503,0,0.376923077,0.213675214,7.368110816,0.029,0,1,36,0,36,0,1,,,,
,,,Marie-testing-againandagainandagaaaaain,fr,2026-04-21_11h19.01.465,AAT,2024.2.4,iPhone,50,https://run.pavlovia.org/LNS/hub/,AAT,,,,,169.269,169.586,,,,,,,,,,,,,,,,,,,,,,,,,,,,,,169.587,170.234,2,11,Crisps,2,1,compatible,Items_pictures/11_crisps.png,0.548,approach,6.971153846,0.516,0,0.352136752,0.223076923,4.647435897,0.032,0,1,37,0,37,0,1,,,,
,,,Marie-testing-againandagainandagaaaaain,fr,2026-04-21_11h19.01.465,AAT,2024.2.4,iPhone,50,https://run.pavlovia.org/LNS/hub/,AAT,,,,,170.488,171.022,,,,,,,,,,,,,,,,,,,,,,,,,,,,,,171.022,171.637,2,11,Crisps,2,1,compatible,Items_pictures/11_crisps.png,0.515,approach,4.085470085,0.465,0,0.458974359,0.204273504,4.085470085,0.05,0,1,38,0,38,0,1,,,,
,,,Marie-testing-againandagainandagaaaaain,fr,2026-04-21_11h19.01.465,AAT,2024.2.4,iPhone,50,https://run.pavlovia.org/LNS/hub/,AAT,,,,,171.89,172.324,,,,,,,,,,,,,,,,,,,,,,,,,,,,,,172.325,172.922,2,31,Croissant,4,0,incompatible,Items_pictures/31_croissant.png,0.498,avoid,3.316749585,0.431,0,0.364957265,0.222222222,3.316749585,0.067,0,1,39,0,39,0,1,,,,
,,,Marie-testing-againandagainandagaaaaain,fr,2026-04-21_11h19.01.465,AAT,2024.2.4,iPhone,50,https://run.pavlovia.org/LNS/hub/,AAT,,,,,173.176,173.76,,,,,,,,,,,,,,,,,,,,,,,,,,,,,,173.76,174.492,2,12,Crisps,2,1,compatible,Items_pictures/12_crisps.png,0.648,approach,8.702408702,0.615,0,0.441880342,0.287179487,8.702408702,0.033,0,1,40,0,40,0,1,,,,
,,,Marie-testing-againandagainandagaaaaain,fr,2026-04-21_11h19.01.465,AAT,2024.2.4,iPhone,50,https://run.pavlovia.org/LNS/hub/,AAT,,,,,174.745,175.229,,,,,,,,,,,,,,,,,,,,,,,,,,,,,,175.229,175.927,2,48,Sour candies,5,0,incompatible,Items_pictures/48_sour_candy.png,0.598,avoid,4.581196581,0.548,0,0.360683761,0.229059829,4.581196581,0.05,0,1,41,0,41,0,1,,,,
,,,Marie-testing-againandagainandagaaaaain,fr,2026-04-21_11h19.01.465,AAT,2024.2.4,iPhone,50,https://run.pavlovia.org/LNS/hub/,AAT,,,,,176.181,176.932,,,,,,,,,,,,,,,,,,,,,,,,,,,,,,176.933,177.697,2,9,Healthy cracker (Darvida),1,1,compatible,Items_pictures/9_healthy_cracker.png,0.665,approach,7.051282051,0.633,0,0.423931598,0.225641026,5.288460723,0.032,0,1,42,0,42,0,1,,,,
,,,Marie-testing-againandagainandagaaaaain,fr,2026-04-21_11h19.01.465,AAT,2024.2.4,iPhone,50,https://run.pavlovia.org/LNS/hub/,AAT,,,,,177.951,178.551,,,,,,,,,,,,,,,,,,,,,,,,,,,,,,178.552,179.265,2,5,Bell pepper,1,1,compatible,Items_pictures/5_bell_pepper.png,0.631,approach,18.92551893,0.617,0,0.359829086,0.264957265,10.86691273,0.014,0,1,43,0,43,0,1,,,,
,,,Marie-testing-againandagainandagaaaaain,fr,2026-04-21_11h19.01.465,AAT,2024.2.4,iPhone,50,https://run.pavlovia.org/LNS/hub/,AAT,,,,,179.52,180.221,,,,,,,,,,,,,,,,,,,,,,,,,,,,,,180.221,180.953,2,57,Fondant au chocolat,6,0,incompatible,Items_pictures/57_fondant.png,0.648,avoid,5.144641683,0.596,0,0.368376042,0.267521368,4.487178986,0.052,0,1,44,0,44,0,1,,,,
,,,Marie-testing-againandagainandagaaaaain,fr,2026-04-21_11h19.01.465,AAT,2024.2.4,iPhone,50,https://run.pavlovia.org/LNS/hub/,AAT,,,,,181.206,181.723,,,,,,,,,,,,,,,,,,,,,,,,,,,,,,181.724,182.471,2,40,Tresse,4,0,incompatible,Items_pictures/40_tresse.png,0.648,avoid,6.812468577,0.614,0,0.406837607,0.231623932,7.063851181,0.034,0,1,45,0,45,0,1,,,,
,,,Marie-testing-againandagainandagaaaaain,fr,2026-04-21_11h19.01.465,AAT,2024.2.4,iPhone,50,https://run.pavlovia.org/LNS/hub/,AAT,,,,,182.725,183.46,,,,,,,,,,,,,,,,,,,,,,,,,,,,,,183.461,184.058,2,31,Croissant,4,0,incompatible,Items_pictures/31_croissant.png,0.498,avoid,4.825498575,0.45,0,0.348717975,0.231623932,4.487180031,0.048,0,1,46,0,46,0,1,,,,
,,,Marie-testing-againandagainandagaaaaain,fr,2026-04-21_11h19.01.465,AAT,2024.2.4,iPhone,50,https://run.pavlovia.org/LNS/hub/,AAT,,,,,184.312,184.93,,,,,,,,,,,,,,,,,,,,,,,,,,,,,,184.931,185.527,2,59,Cheesecake,6,0,incompatible,Items_pictures/59_cheesecake.png,0.498,avoid,4.340539635,0.447,0,0.385470085,0.221367521,4.340539635,0.051,0,1,47,0,47,0,1,,,,
,,,Marie-testing-againandagainandagaaaaain,fr,2026-04-21_11h19.01.465,AAT,2024.2.4,iPhone,50,https://run.pavlovia.org/LNS/hub/,AAT,,,,,185.781,186.482,,,,,,,,,,,,,,,,,,,,,,,,,,,,,,186.482,187.179,2,35,Foccacia,4,1,compatible,Items_pictures/35_focaccia.png,0.598,approach,7.407407407,0.565,0,0.471794924,0.244444444,7.821809403,0.033,0,1,48,0,48,0,1,,,,
,,,Marie-testing-againandagainandagaaaaain,fr,2026-04-21_11h19.01.465,AAT,2024.2.4,iPhone,50,https://run.pavlovia.org/LNS/hub/,AAT,,,,,187.433,188.167,,,,,,,,,,,,,,,,,,,,,,,,,,,,,,188.168,188.798,2,49,Chocolate cookies,5,0,incompatible,Items_pictures/49_chocolate_cookie.png,0.547,avoid,5.413105413,0.499,0,0.407692308,0.25982906,5.413105413,0.048,0,1,49,0,49,0,1,,,,
,,,Marie-testing-againandagainandagaaaaain,fr,2026-04-21_11h19.01.465,AAT,2024.2.4,iPhone,50,https://run.pavlovia.org/LNS/hub/,AAT,,,,,189.052,189.736,,,,,,,,,,,,,,,,,,,,,,,,,,,,,,189.736,190.35,2,31,Croissant,4,0,incompatible,Items_pictures/31_croissant.png,0.515,avoid,5.564276993,0.466,0,0.329914504,0.272649573,4.151403619,0.049,0,1,50,0,50,0,1,,,,
,,,Marie-testing-againandagainandagaaaaain,fr,2026-04-21_11h19.01.465,AAT,2024.2.4,iPhone,50,https://run.pavlovia.org/LNS/hub/,AAT,,,,,190.604,190.971,,,,,,,,,,,,,,,,,,,,,,,,,,,,,,190.972,191.602,2,49,Chocolate cookies,5,0,incompatible,Items_pictures/49_chocolate_cookie.png,0.531,avoid,5.741360089,0.485,0,0.418803419,0.264102564,5.741360089,0.046,0,1,51,0,51,0,1,,,,
,,,Marie-testing-againandagainandagaaaaain,fr,2026-04-21_11h19.01.465,AAT,2024.2.4,iPhone,50,https://run.pavlovia.org/LNS/hub/,AAT,,,,,191.856,192.64,,,,,,,,,,,,,,,,,,,,,,,,,,,,,,192.641,193.272,2,25,French fries,3,1,compatible,Items_pictures/25_fries.png,0.548,approach,5.644586895,0.5,0,0.362393162,0.270940171,5.644586895,0.048,0,1,52,0,52,0,1,,,,
,,,Marie-testing-againandagainandagaaaaain,fr,2026-04-21_11h19.01.465,AAT,2024.2.4,iPhone,50,https://run.pavlovia.org/LNS/hub/,AAT,,,,,193.525,194.259,,,,,,,,,,,,,,,,,,,,,,,,,,,,,,194.26,194.975,2,49,Chocolate cookies,5,0,incompatible,Items_pictures/49_chocolate_cookie.png,0.615,avoid,4.290598291,0.565,0,0.353846128,0.214529915,3.538461017,0.05,0,1,53,0,53,0,1,,,,
,,,Marie-testing-againandagainandagaaaaain,fr,2026-04-21_11h19.01.465,AAT,2024.2.4,iPhone,50,https://run.pavlovia.org/LNS/hub/,AAT,,,,,195.229,195.562,,,,,,,,,,,,,,,,,,,,,,,,,,,,,,195.563,196.361,2,9,Healthy cracker (Darvida),1,1,compatible,Items_pictures/9_healthy_cracker.png,0.698,approach,7.451923077,0.666,0,0.431623906,0.238461538,5.769229954,0.032,0,1,54,0,54,0,1,,,,
,,,Marie-testing-againandagainandagaaaaain,fr,2026-04-21_11h19.01.465,AAT,2024.2.4,iPhone,50,https://run.pavlovia.org/LNS/hub/,AAT,,,,,196.614,197.382,,,,,,,,,,,,,,,,,,,,,,,,,,,,,,197.383,197.947,2,15,Flute,2,1,compatible,Items_pictures/15_flute.png,0.481,approach,7.847707848,0.448,0,0.411111111,0.258974359,7.847707848,0.033,0,1,55,0,55,0,1,,,,
,,,Marie-testing-againandagainandagaaaaain,fr,2026-04-21_11h19.01.465,AAT,2024.2.4,iPhone,50,https://run.pavlovia.org/LNS/hub/,AAT,,,,,198.2,198.584,,,,,,,,,,,,,,,,,,,,,,,,,,,,,,198.584,199.165,2,25,French fries,3,1,compatible,Items_pictures/25_fries.png,0.498,approach,8.270487682,0.464,0,0.466666667,0.281196581,8.270487682,0.034,0,1,56,0,56,0,1,,,,
,,,Marie-testing-againandagainandagaaaaain,fr,2026-04-21_11h19.01.465,AAT,2024.2.4,iPhone,50,https://run.pavlovia.org/LNS/hub/,AAT,,,,,199.419,199.953,,,,,,,,,,,,,,,,,,,,,,,,,,,,,,199.954,200.601,2,57,Fondant au chocolat,6,0,incompatible,Items_pictures/57_fondant.png,0.547,avoid,7.891737892,0.517,0,0.379487179,0.236752137,6.381766382,0.03,0,1,57,0,57,0,1,,,,
,,,Marie-testing-againandagainandagaaaaain,fr,2026-04-21_11h19.01.465,AAT,2024.2.4,iPhone,50,https://run.pavlovia.org/LNS/hub/,AAT,,,,,200.855,201.222,,,,,,,,,,,,,,,,,,,,,,,,,,,,,,201.223,202.037,2,17,"Salted nuts (Cashew, peanuts, pistacchios)",2,1,compatible,Items_pictures/17_flips.png,0.731,approach,4.83035483,0.665,0,0.490598291,0.318803419,4.83035483,0.066,0,1,58,0,58,0,1,,,,
,,,Marie-testing-againandagainandagaaaaain,fr,2026-04-21_11h19.01.465,AAT,2024.2.4,iPhone,50,https://run.pavlovia.org/LNS/hub/,AAT,,,,,202.29,203.042,,,,,,,,,,,,,,,,,,,,,,,,,,,,,,203.042,203.605,2,35,Foccacia,4,1,compatible,Items_pictures/35_focaccia.png,0.481,approach,13.67521368,0.465,0,0.28376071,0.218803419,7.852565733,0.016,0,1,59,0,59,0,1,,,,
,,,Marie-testing-againandagainandagaaaaain,fr,2026-04-21_11h19.01.465,AAT,2024.2.4,iPhone,50,https://run.pavlovia.org/LNS/hub/,AAT,,,,,247.03,247.428,,,,,,,,,,,,,,,,,,,,,,,,,,,,245.693,246.546,247.429,248.226,3,12,Crisps,2,1,incompatible,Items_pictures/12_crisps.png,0.682,avoid,3.006899392,0.599,0,0.376068376,0.24957265,3.006899392,0.083,0,1,0,0,0,0,1,203.86,245.692,,
,,,Marie-testing-againandagainandagaaaaain,fr,2026-04-21_11h19.01.465,AAT,2024.2.4,iPhone,50,https://run.pavlovia.org/LNS/hub/,AAT,,,,,248.479,249.13,,,,,,,,,,,,,,,,,,,,,,,,,,,,,,249.131,249.711,3,49,Chocolate cookies,5,0,compatible,Items_pictures/49_chocolate_cookie.png,0.514,approach,8.443408443,0.481,0,0.413675214,0.278632479,8.443408443,0.033,0,1,1,0,1,0,1,,,,
,,,Marie-testing-againandagainandagaaaaain,fr,2026-04-21_11h19.01.465,AAT,2024.2.4,iPhone,50,https://run.pavlovia.org/LNS/hub/,AAT,,,,,249.965,250.732,,,,,,,,,,,,,,,,,,,,,,,,,,,,,,250.733,251.43,3,47,Gummy candies,5,0,compatible,Items_pictures/47_gummy_candy.png,0.631,approach,14.26282051,0.615,0,0.333333333,0.228205128,9.401709402,0.016,0,1,2,0,2,0,1,,,,
,,,Marie-testing-againandagainandagaaaaain,fr,2026-04-21_11h19.01.465,AAT,2024.2.4,iPhone,50,https://run.pavlovia.org/LNS/hub/,AAT,,,,,251.684,252.118,,,,,,,,,,,,,,,,,,,,,,,,,,,,,,252.118,252.665,3,57,Fondant au chocolat,6,0,compatible,Items_pictures/57_fondant.png,0.464,approach,12.5534188,0.448,0,0.38974359,0.200854701,9.455128205,0.016,0,1,3,0,3,0,1,,,,
,,,Marie-testing-againandagainandagaaaaain,fr,2026-04-21_11h19.01.465,AAT,2024.2.4,iPhone,50,https://run.pavlovia.org/LNS/hub/,AAT,,,,,252.919,253.236,,,,,,,,,,,,,,,,,,,,,,,,,,,,,,253.236,253.766,3,47,Gummy candies,5,0,compatible,Items_pictures/47_gummy_candy.png,0.464,approach,18.21170283,0.451,0,0.442735043,0.236752137,18.21170283,0.013,0,1,4,0,4,0,1,,,,
,,,Marie-testing-againandagainandagaaaaain,fr,2026-04-21_11h19.01.465,AAT,2024.2.4,iPhone,50,https://run.pavlovia.org/LNS/hub/,AAT,,,,,254.021,254.355,,,,,,,,,,,,,,,,,,,,,,,,,,,,,,254.355,254.985,3,11,Crisps,2,1,incompatible,Items_pictures/11_crisps.png,0.547,avoid,9.696433834,0.518,0,0.325641026,0.281196581,7.368110816,0.029,0,1,5,0,5,0,1,,,,
,,,Marie-testing-againandagainandagaaaaain,fr,2026-04-21_11h19.01.465,AAT,2024.2.4,iPhone,50,https://run.pavlovia.org/LNS/hub/,AAT,,,,,255.239,255.924,,,,,,,,,,,,,,,,,,,,,,,,,,,,,,255.924,256.571,3,47,Gummy candies,5,0,compatible,Items_pictures/47_gummy_candy.png,0.58,approach,22.86324786,0.564,0,0.201709376,0.365811966,12.60683598,0.016,0,1,6,0,6,0,1,,,,
,,,Marie-testing-againandagainandagaaaaain,fr,2026-04-21_11h19.01.465,AAT,2024.2.4,iPhone,50,https://run.pavlovia.org/LNS/hub/,AAT,,,,,256.825,257.126,,,,,,,,,,,,,,,,,,,,,,,,,,,,,,257.126,257.807,3,37,Pain au chocolat,4,0,compatible,Items_pictures/37_pain_chocolat.png,0.598,approach,6.887883358,0.564,0,0.468376068,0.234188034,6.887883358,0.034,0,1,7,0,7,0,1,,,,
,,,Marie-testing-againandagainandagaaaaain,fr,2026-04-21_11h19.01.465,AAT,2024.2.4,iPhone,50,https://run.pavlovia.org/LNS/hub/,AAT,,,,,258.06,258.428,,,,,,,,,,,,,,,,,,,,,,,,,,,,,,258.428,258.991,3,5,Bell pepper,1,1,incompatible,Items_pictures/5_bell_pepper.png,0.48,avoid,10.56166056,0.452,0,0.431623932,0.295726496,10.56166056,0.028,0,1,8,0,8,0,1,,,,
,,,Marie-testing-againandagainandagaaaaain,fr,2026-04-21_11h19.01.465,AAT,2024.2.4,iPhone,50,https://run.pavlovia.org/LNS/hub/,AAT,,,,,259.246,259.646,,,,,,,,,,,,,,,,,,,,,,,,,,,,,,259.647,260.378,3,35,Foccacia,4,1,incompatible,Items_pictures/35_focaccia.png,0.649,avoid,8.029008029,0.616,0,0.368376068,0.264957265,8.029008029,0.033,0,1,9,0,9,0,1,,,,
,,,Marie-testing-againandagainandagaaaaain,fr,2026-04-21_11h19.01.465,AAT,2024.2.4,iPhone,50,https://run.pavlovia.org/LNS/hub/,AAT,,,,,260.635,261.3,,,,,,,,,,,,,,,,,,,,,,,,,,,,,,261.3,261.931,3,22,Pizza (vegetarian),3,1,incompatible,Items_pictures/22_veg_pizza.png,0.548,avoid,7.276507277,0.511,0,0.347008521,0.269230769,6.329405624,0.037,0,1,10,0,10,0,1,,,,
,,,Marie-testing-againandagainandagaaaaain,fr,2026-04-21_11h19.01.465,AAT,2024.2.4,iPhone,50,https://run.pavlovia.org/LNS/hub/,AAT,,,,,262.185,262.535,,,,,,,,,,,,,,,,,,,,,,,,,,,,,,262.535,263.367,3,31,Croissant,4,0,compatible,Items_pictures/31_croissant.png,0.731,approach,0.934729025,0.464,1,0.811111111,0.24957265,2.221581997,0.267,0,1,11,0,11,0,1,,,,
,,,Marie-testing-againandagainandagaaaaain,fr,2026-04-21_11h19.01.465,AAT,2024.2.4,iPhone,50,https://run.pavlovia.org/LNS/hub/,AAT,,,,,263.62,264.355,,,,,,,,,,,,,,,,,,,,,,,,,,,,,,264.355,264.952,3,48,Sour candies,5,0,compatible,Items_pictures/48_sour_candy.png,0.514,approach,13.07189542,0.497,0,0.411965812,0.222222222,13.07189542,0.017,0,1,12,0,12,0,1,,,,
,,,Marie-testing-againandagainandagaaaaain,fr,2026-04-21_11h19.01.465,AAT,2024.2.4,iPhone,50,https://run.pavlovia.org/LNS/hub/,AAT,,,,,265.206,265.807,,,,,,,,,,,,,,,,,,,,,,,,,,,,,,265.807,266.471,3,9,Healthy cracker (Darvida),1,1,incompatible,Items_pictures/9_healthy_cracker.png,0.581,avoid,5.804843305,0.533,0,0.405128205,0.278632479,5.804843305,0.048,0,1,13,0,13,0,1,,,,
,,,Marie-testing-againandagainandagaaaaain,fr,2026-04-21_11h19.01.465,AAT,2024.2.4,iPhone,50,https://run.pavlovia.org/LNS/hub/,AAT,,,,,266.725,267.058,,,,,,,,,,,,,,,,,,,,,,,,,,,,,,267.059,267.706,3,57,Fondant au chocolat,6,0,compatible,Items_pictures/57_fondant.png,0.565,approach,14.52991453,0.549,0,0.425641026,0.232478632,14.52991453,0.016,0,1,14,0,14,0,1,,,,
,,,Marie-testing-againandagainandagaaaaain,fr,2026-04-21_11h19.01.465,AAT,2024.2.4,iPhone,50,https://run.pavlovia.org/LNS/hub/,AAT,,,,,267.96,268.343,,,,,,,,,,,,,,,,,,,,,,,,,,,,,,268.344,269.007,3,41,"Chocolate snacks (e.g. Kinder, Knoppers)",5,0,compatible,Items_pictures/41_chocolate_snack.png,0.582,approach,8.066239316,0.55,0,0.429059829,0.258119658,8.066239316,0.032,0,1,15,0,15,0,1,,,,
,,,Marie-testing-againandagainandagaaaaain,fr,2026-04-21_11h19.01.465,AAT,2024.2.4,iPhone,50,https://run.pavlovia.org/LNS/hub/,AAT,,,,,269.262,269.863,,,,,,,,,,,,,,,,,,,,,,,,,,,,,,269.863,270.577,3,22,Pizza (vegetarian),3,1,incompatible,Items_pictures/22_veg_pizza.png,0.614,avoid,4.124270791,0.551,0,0.468376068,0.25982906,4.124270791,0.063,0,1,16,0,16,0,1,,,,
,,,Marie-testing-againandagainandagaaaaain,fr,2026-04-21_11h19.01.465,AAT,2024.2.4,iPhone,50,https://run.pavlovia.org/LNS/hub/,AAT,,,,,270.831,271.332,,,,,,,,,,,,,,,,,,,,,,,,,,,,,,271.332,272.03,3,15,Flute,2,1,incompatible,Items_pictures/15_flute.png,0.614,avoid,5.076923077,0.564,0,0.366666667,0.253846154,5.076923077,0.05,0,1,17,0,17,0,1,,,,
,,,Marie-testing-againandagainandagaaaaain,fr,2026-04-21_11h19.01.465,AAT,2024.2.4,iPhone,50,https://run.pavlovia.org/LNS/hub/,AAT,,,,,272.284,272.651,,,,,,,,,,,,,,,,,,,,,,,,,,,,,,272.651,273.282,3,5,Bell pepper,1,1,incompatible,Items_pictures/5_bell_pepper.png,0.532,avoid,5.442176871,0.483,0,0.384615359,0.266666667,4.517703985,0.049,0,1,18,0,18,0,1,,,,
,,,Marie-testing-againandagainandagaaaaain,fr,2026-04-21_11h19.01.465,AAT,2024.2.4,iPhone,50,https://run.pavlovia.org/LNS/hub/,AAT,,,,,273.535,274.203,,,,,,,,,,,,,,,,,,,,,,,,,,,,,,274.204,274.784,3,41,"Chocolate snacks (e.g. Kinder, Knoppers)",5,0,compatible,Items_pictures/41_chocolate_snack.png,0.513,approach,8.877860491,0.482,0,0.41025641,0.275213675,8.877860491,0.031,0,1,19,0,19,0,1,,,,
,,,Marie-testing-againandagainandagaaaaain,fr,2026-04-21_11h19.01.465,AAT,2024.2.4,iPhone,50,https://run.pavlovia.org/LNS/hub/,AAT,,,,,275.038,275.489,,,,,,,,,,,,,,,,,,,,,,,,,,,,,,275.489,276.106,3,40,Tresse,4,0,compatible,Items_pictures/40_tresse.png,0.53,approach,10.8707265,0.498,0,0.506837581,0.347863248,9.508546193,0.032,0,1,20,0,20,0,1,,,,
,,,Marie-testing-againandagainandagaaaaain,fr,2026-04-21_11h19.01.465,AAT,2024.2.4,iPhone,50,https://run.pavlovia.org/LNS/hub/,AAT,,,,,276.374,276.891,,,,,,,,,,,,,,,,,,,,,,,,,,,,,,276.892,277.472,3,40,Tresse,4,0,compatible,Items_pictures/40_tresse.png,0.498,approach,19.49786325,0.482,0,0.522222222,0.311965812,19.49786325,0.016,0,1,21,0,21,0,1,,,,
,,,Marie-testing-againandagainandagaaaaain,fr,2026-04-21_11h19.01.465,AAT,2024.2.4,iPhone,50,https://run.pavlovia.org/LNS/hub/,AAT,,,,,277.726,278.026,,,,,,,,,,,,,,,,,,,,,,,,,,,,,,278.027,278.658,3,5,Bell pepper,1,1,incompatible,Items_pictures/5_bell_pepper.png,0.531,avoid,7.037037037,0.501,0,0.488888889,0.211111111,7.037037037,0.03,0,1,22,0,22,0,1,,,,
,,,Marie-testing-againandagainandagaaaaain,fr,2026-04-21_11h19.01.465,AAT,2024.2.4,iPhone,50,https://run.pavlovia.org/LNS/hub/,AAT,,,,,278.912,279.312,,,,,,,,,,,,,,,,,,,,,,,,,,,,,,279.313,280.043,3,12,Crisps,2,1,incompatible,Items_pictures/12_crisps.png,0.664,avoid,12.3015873,0.636,0,0.476923077,0.344444444,12.3015873,0.028,0,1,23,0,23,0,1,,,,
,,,Marie-testing-againandagainandagaaaaain,fr,2026-04-21_11h19.01.465,AAT,2024.2.4,iPhone,50,https://run.pavlovia.org/LNS/hub/,AAT,,,,,280.298,280.882,,,,,,,,,,,,,,,,,,,,,,,,,,,,,,280.882,281.497,3,35,Foccacia,4,1,incompatible,Items_pictures/35_focaccia.png,0.531,avoid,8.917378917,0.501,0,0.401709402,0.267521368,8.917378917,0.03,0,1,24,0,24,0,1,,,,
,,,Marie-testing-againandagainandagaaaaain,fr,2026-04-21_11h19.01.465,AAT,2024.2.4,iPhone,50,https://run.pavlovia.org/LNS/hub/,AAT,,,,,281.75,282.134,,,,,,,,,,,,,,,,,,,,,,,,,,,,,,282.134,282.816,3,22,Pizza (vegetarian),3,1,incompatible,Items_pictures/22_veg_pizza.png,0.615,avoid,6.192220478,0.566,0,0.413675214,0.303418803,6.192220478,0.049,0,1,25,0,25,0,1,,,,
,,,Marie-testing-againandagainandagaaaaain,fr,2026-04-21_11h19.01.465,AAT,2024.2.4,iPhone,50,https://run.pavlovia.org/LNS/hub/,AAT,,,,,283.07,283.454,,,,,,,,,,,,,,,,,,,,,,,,,,,,,,283.454,284.035,3,12,Crisps,2,1,incompatible,Items_pictures/12_crisps.png,0.497,avoid,8.11965812,0.465,0,0.317094043,0.25982906,5.876069191,0.032,0,1,26,0,26,0,1,,,,
,,,Marie-testing-againandagainandagaaaaain,fr,2026-04-21_11h19.01.465,AAT,2024.2.4,iPhone,50,https://run.pavlovia.org/LNS/hub/,AAT,,,,,284.289,284.939,,,,,,,,,,,,,,,,,,,,,,,,,,,,,,284.94,285.588,3,48,Sour candies,5,0,compatible,Items_pictures/48_sour_candy.png,0.565,approach,6.767835339,0.516,0,0.448717949,0.331623932,5.965463108,0.049,0,1,27,0,27,0,1,,,,
,,,Marie-testing-againandagainandagaaaaain,fr,2026-04-21_11h19.01.465,AAT,2024.2.4,iPhone,50,https://run.pavlovia.org/LNS/hub/,AAT,,,,,285.842,286.443,,,,,,,,,,,,,,,,,,,,,,,,,,,,,,286.443,287.124,3,15,Flute,2,1,incompatible,Items_pictures/15_flute.png,0.598,avoid,5.333333333,0.548,0,0.364957265,0.266666667,5.333333333,0.05,0,1,28,0,28,0,1,,,,
,,,Marie-testing-againandagainandagaaaaain,fr,2026-04-21_11h19.01.465,AAT,2024.2.4,iPhone,50,https://run.pavlovia.org/LNS/hub/,AAT,,,,,287.378,287.745,,,,,,,,,,,,,,,,,,,,,,,,,,,,,,287.746,288.41,3,25,French fries,3,1,incompatible,Items_pictures/25_fries.png,0.565,avoid,6.837606838,0.534,0,0.452136752,0.211965812,6.837606838,0.031,0,1,29,0,29,0,1,,,,
,,,Marie-testing-againandagainandagaaaaain,fr,2026-04-21_11h19.01.465,AAT,2024.2.4,iPhone,50,https://run.pavlovia.org/LNS/hub/,AAT,,,,,288.664,289.015,,,,,,,,,,,,,,,,,,,,,,,,,,,,,,289.015,289.763,3,12,Crisps,2,1,incompatible,Items_pictures/12_crisps.png,0.664,avoid,11.96581197,0.635,0,0.44017094,0.347008547,11.96581197,0.029,0,1,30,0,30,0,1,,,,
,,,Marie-testing-againandagainandagaaaaain,fr,2026-04-21_11h19.01.465,AAT,2024.2.4,iPhone,50,https://run.pavlovia.org/LNS/hub/,AAT,,,,,290.017,290.568,,,,,,,,,,,,,,,,,,,,,,,,,,,,,,290.568,291.249,3,59,Cheesecake,6,0,compatible,Items_pictures/59_cheesecake.png,0.598,approach,14.9321267,0.581,0,0.414529915,0.253846154,14.9321267,0.017,0,1,31,0,31,0,1,,,,
,,,Marie-testing-againandagainandagaaaaain,fr,2026-04-21_11h19.01.465,AAT,2024.2.4,iPhone,50,https://run.pavlovia.org/LNS/hub/,AAT,,,,,291.503,292.038,,,,,,,,,,,,,,,,,,,,,,,,,,,,,,292.038,292.892,3,9,Healthy cracker (Darvida),1,1,incompatible,Items_pictures/9_healthy_cracker.png,0.749,avoid,6.41025641,0.715,0,0.417948718,0.217948718,6.41025641,0.034,0,1,32,0,32,0,1,,,,
,,,Marie-testing-againandagainandagaaaaain,fr,2026-04-21_11h19.01.465,AAT,2024.2.4,iPhone,50,https://run.pavlovia.org/LNS/hub/,AAT,,,,,293.156,293.807,,,,,,,,,,,,,,,,,,,,,,,,,,,,,,293.808,294.422,3,35,Foccacia,4,1,incompatible,Items_pictures/35_focaccia.png,0.547,avoid,6.927575349,0.509,0,0.341880316,0.263247863,6.297795085,0.038,0,1,33,0,33,0,1,,,,
,,,Marie-testing-againandagainandagaaaaain,fr,2026-04-21_11h19.01.465,AAT,2024.2.4,iPhone,50,https://run.pavlovia.org/LNS/hub/,AAT,,,,,294.675,294.993,,,,,,,,,,,,,,,,,,,,,,,,,,,,,,294.993,295.525,3,25,French fries,3,1,incompatible,Items_pictures/25_fries.png,0.448,avoid,11.02971103,0.427,0,0.340170966,0.231623932,9.605210847,0.021,0,1,34,0,34,0,1,,,,
,,,Marie-testing-againandagainandagaaaaain,fr,2026-04-21_11h19.01.465,AAT,2024.2.4,iPhone,50,https://run.pavlovia.org/LNS/hub/,AAT,,,,,295.778,296.195,,,,,,,,,,,,,,,,,,,,,,,,,,,,,,296.196,296.76,3,25,French fries,3,1,incompatible,Items_pictures/25_fries.png,0.481,avoid,5.777777778,0.431,0,0.369230769,0.288888889,5.777777778,0.05,0,1,35,0,35,0,1,,,,
,,,Marie-testing-againandagainandagaaaaain,fr,2026-04-21_11h19.01.465,AAT,2024.2.4,iPhone,50,https://run.pavlovia.org/LNS/hub/,AAT,,,,,297.014,297.431,,,,,,,,,,,,,,,,,,,,,,,,,,,,,,297.431,298.079,3,10,"Dried fruits (apricot, mango)",1,0,compatible,Items_pictures/10_dried_fruits.png,0.581,approach,10.1010101,0.548,0,0.478632479,0.333333333,10.82621083,0.033,0,1,36,0,36,0,1,,,,
,,,Marie-testing-againandagainandagaaaaain,fr,2026-04-21_11h19.01.465,AAT,2024.2.4,iPhone,50,https://run.pavlovia.org/LNS/hub/,AAT,,,,,298.333,299.017,,,,,,,,,,,,,,,,,,,,,,,,,,,,,,299.017,299.682,3,28,Burger (vegetarian),3,1,incompatible,Items_pictures/28_veg_burger.png,0.581,avoid,4.983067247,0.528,0,0.379487153,0.264102564,4.531526681,0.053,0,1,37,0,37,0,1,,,,
,,,Marie-testing-againandagainandagaaaaain,fr,2026-04-21_11h19.01.465,AAT,2024.2.4,iPhone,50,https://run.pavlovia.org/LNS/hub/,AAT,,,,,299.935,300.419,,,,,,,,,,,,,,,,,,,,,,,,,,,,,,300.42,301.118,3,59,Cheesecake,6,0,compatible,Items_pictures/59_cheesecake.png,0.632,approach,1.702827087,0.502,1,0.458119658,0.221367521,2.386587771,0.13,0,1,38,0,38,0,1,,,,
,,,Marie-testing-againandagainandagaaaaain,fr,2026-04-21_11h19.01.465,AAT,2024.2.4,iPhone,50,https://run.pavlovia.org/LNS/hub/,AAT,,,,,301.372,302.156,,,,,,,,,,,,,,,,,,,,,,,,,,,,,,302.157,302.788,3,15,Flute,2,1,incompatible,Items_pictures/15_flute.png,0.548,avoid,8.469308469,0.515,0,0.262393136,0.279487179,5.387204597,0.033,0,1,39,0,39,0,1,,,,
,,,Marie-testing-againandagainandagaaaaain,fr,2026-04-21_11h19.01.465,AAT,2024.2.4,iPhone,50,https://run.pavlovia.org/LNS/hub/,AAT,,,,,303.041,303.442,,,,,,,,,,,,,,,,,,,,,,,,,,,,,,303.443,304.056,3,51,Tiramisu,6,0,compatible,Items_pictures/51_tiramisu.png,0.532,approach,14.26282051,0.516,0,0.275213675,0.228205128,8.333333333,0.016,0,1,40,0,40,0,1,,,,
,,,Marie-testing-againandagainandagaaaaain,fr,2026-04-21_11h19.01.465,AAT,2024.2.4,iPhone,50,https://run.pavlovia.org/LNS/hub/,AAT,,,,,304.31,305.113,,,,,,,,,,,,,,,,,,,,,,,,,,,,,,305.113,305.777,3,25,French fries,3,1,incompatible,Items_pictures/25_fries.png,0.565,avoid,7.873607874,0.532,0,0.345299145,0.25982906,5.439005439,0.033,0,1,41,0,41,0,1,,,,
,,,Marie-testing-againandagainandagaaaaain,fr,2026-04-21_11h19.01.465,AAT,2024.2.4,iPhone,50,https://run.pavlovia.org/LNS/hub/,AAT,,,,,306.031,306.415,,,,,,,,,,,,,,,,,,,,,,,,,,,,,,306.415,307.029,3,48,Sour candies,5,0,compatible,Items_pictures/48_sour_candy.png,0.531,approach,6.356837607,0.483,0,0.42991453,0.305128205,6.356837607,0.048,0,1,42,0,42,0,1,,,,
,,,Marie-testing-againandagainandagaaaaain,fr,2026-04-21_11h19.01.465,AAT,2024.2.4,iPhone,50,https://run.pavlovia.org/LNS/hub/,AAT,,,,,307.283,307.834,,,,,,,,,,,,,,,,,,,,,,,,,,,,,,307.835,309.087,3,22,Pizza (vegetarian),3,1,incompatible,Items_pictures/22_veg_pizza.png,0.532,avoid,4.339250493,0.467,0,0.330769231,0.282051282,4.339250493,0.065,0,1,43,0,43,0,1,,,,
,,,Marie-testing-againandagainandagaaaaain,fr,2026-04-21_11h19.01.465,AAT,2024.2.4,iPhone,50,https://run.pavlovia.org/LNS/hub/,AAT,,,,,309.354,309.821,,,,,,,,,,,,,,,,,,,,,,,,,,,,,,309.822,310.603,3,31,Croissant,4,0,compatible,Items_pictures/31_croissant.png,0.698,approach,1.256211489,0.483,1,0.66410259,0.27008547,2.305704753,0.215,0,1,44,0,44,0,1,,,,
,,,Marie-testing-againandagainandagaaaaain,fr,2026-04-21_11h19.01.465,AAT,2024.2.4,iPhone,50,https://run.pavlovia.org/LNS/hub/,AAT,,,,,310.858,311.174,,,,,,,,,,,,,,,,,,,,,,,,,,,,,,311.175,311.839,3,9,Healthy cracker (Darvida),1,1,incompatible,Items_pictures/9_healthy_cracker.png,0.581,avoid,4.291689398,0.534,0,0.431623932,0.201709402,4.291689398,0.047,0,1,45,0,45,0,1,,,,
,,,Marie-testing-againandagainandagaaaaain,fr,2026-04-21_11h19.01.465,AAT,2024.2.4,iPhone,50,https://run.pavlovia.org/LNS/hub/,AAT,,,,,312.093,312.845,,,,,,,,,,,,,,,,,,,,,,,,,,,,,,312.845,313.525,3,54,Ice cream cone,6,0,compatible,Items_pictures/54_ice_cream.png,0.598,approach,16.23931624,0.581,0,0.297435897,0.276068376,8.396178984,0.017,0,1,46,0,46,0,1,,,,
,,,Marie-testing-againandagainandagaaaaain,fr,2026-04-21_11h19.01.465,AAT,2024.2.4,iPhone,50,https://run.pavlovia.org/LNS/hub/,AAT,,,,,313.779,314.38,,,,,,,,,,,,,,,,,,,,,,,,,,,,,,314.381,315.095,3,30,Onion rings,3,1,incompatible,Items_pictures/30_onion_rings.png,0.632,avoid,5.804843305,0.584,0,0.360683761,0.278632479,5.804843305,0.048,0,1,47,0,47,0,1,,,,
,,,Marie-testing-againandagainandagaaaaain,fr,2026-04-21_11h19.01.465,AAT,2024.2.4,iPhone,50,https://run.pavlovia.org/LNS/hub/,AAT,,,,,315.349,315.917,,,,,,,,,,,,,,,,,,,,,,,,,,,,,,315.917,316.715,3,31,Croissant,4,0,compatible,Items_pictures/31_croissant.png,0.715,approach,1.245907216,0.514,1,0.668376068,0.25042735,2.691669856,0.201,0,1,48,0,48,0,1,,,,
,,,Marie-testing-againandagainandagaaaaain,fr,2026-04-21_11h19.01.465,AAT,2024.2.4,iPhone,50,https://run.pavlovia.org/LNS/hub/,AAT,,,,,316.968,317.453,,,,,,,,,,,,,,,,,,,,,,,,,,,,,,317.453,318.101,3,17,"Salted nuts (Cashew, peanuts, pistacchios)",2,1,incompatible,Items_pictures/17_flips.png,0.565,avoid,5.982905983,0.517,0,0.382905983,0.287179487,5.982905983,0.048,0,1,49,0,49,0,1,,,,
,,,Marie-testing-againandagainandagaaaaain,fr,2026-04-21_11h19.01.465,AAT,2024.2.4,iPhone,50,https://run.pavlovia.org/LNS/hub/,AAT,,,,,318.355,318.805,,,,,,,,,,,,,,,,,,,,,,,,,,,,,,318.806,319.453,3,5,Bell pepper,1,1,incompatible,Items_pictures/5_bell_pepper.png,0.548,avoid,7.640507641,0.515,0,0.360683761,0.252136752,7.044807045,0.033,0,1,50,0,50,0,1,,,,
,,,Marie-testing-againandagainandagaaaaain,fr,2026-04-21_11h19.01.465,AAT,2024.2.4,iPhone,50,https://run.pavlovia.org/LNS/hub/,AAT,,,,,319.707,320.207,,,,,,,,,,,,,,,,,,,,,,,,,,,,,,320.208,320.872,3,31,Croissant,4,0,compatible,Items_pictures/31_croissant.png,0.598,approach,17.89173789,0.583,0,0.3264957,0.268376068,10.31338857,0.015,0,1,51,0,51,0,1,,,,
,,,Marie-testing-againandagainandagaaaaain,fr,2026-04-21_11h19.01.465,AAT,2024.2.4,iPhone,50,https://run.pavlovia.org/LNS/hub/,AAT,,,,,321.126,321.727,,,,,,,,,,,,,,,,,,,,,,,,,,,,,,321.727,322.392,3,51,Tiramisu,6,0,compatible,Items_pictures/51_tiramisu.png,0.581,approach,8.469308469,0.548,0,0.453846154,0.279487179,8.469308469,0.033,0,1,52,0,52,0,1,,,,
,,,Marie-testing-againandagainandagaaaaain,fr,2026-04-21_11h19.01.465,AAT,2024.2.4,iPhone,50,https://run.pavlovia.org/LNS/hub/,AAT,,,,,322.646,323.197,,,,,,,,,,,,,,,,,,,,,,,,,,,,,,323.197,323.978,3,11,Crisps,2,1,incompatible,Items_pictures/11_crisps.png,0.681,avoid,7.77000777,0.648,0,0.392307692,0.256410256,7.77000777,0.033,0,1,53,0,53,0,1,,,,
,,,Marie-testing-againandagainandagaaaaain,fr,2026-04-21_11h19.01.465,AAT,2024.2.4,iPhone,50,https://run.pavlovia.org/LNS/hub/,AAT,,,,,324.232,324.682,,,,,,,,,,,,,,,,,,,,,,,,,,,,,,324.683,325.314,3,30,Onion rings,3,1,incompatible,Items_pictures/30_onion_rings.png,0.548,avoid,6.734006734,0.515,0,0.292307718,0.222222222,4.16990496,0.033,0,1,54,0,54,0,1,,,,
,,,Marie-testing-againandagainandagaaaaain,fr,2026-04-21_11h19.01.465,AAT,2024.2.4,iPhone,50,https://run.pavlovia.org/LNS/hub/,AAT,,,,,325.568,325.868,,,,,,,,,,,,,,,,,,,,,,,,,,,,,,325.868,326.533,3,28,Burger (vegetarian),3,1,incompatible,Items_pictures/28_veg_burger.png,0.564,avoid,5.185185185,0.519,0,0.413675214,0.233333333,5.185185185,0.045,0,1,55,0,55,0,1,,,,
,,,Marie-testing-againandagainandagaaaaain,fr,2026-04-21_11h19.01.465,AAT,2024.2.4,iPhone,50,https://run.pavlovia.org/LNS/hub/,AAT,,,,,326.786,327.254,,,,,,,,,,,,,,,,,,,,,,,,,,,,,,327.254,327.835,3,37,Pain au chocolat,4,0,compatible,Items_pictures/37_pain_chocolat.png,0.498,approach,8.108108108,0.461,0,0.529059803,0.3,7.553706849,0.037,0,1,56,0,56,0,1,,,,
,,,Marie-testing-againandagainandagaaaaain,fr,2026-04-21_11h19.01.465,AAT,2024.2.4,iPhone,50,https://run.pavlovia.org/LNS/hub/,AAT,,,,,328.088,328.473,,,,,,,,,,,,,,,,,,,,,,,,,,,,,,328.473,329.003,3,37,Pain au chocolat,4,0,compatible,Items_pictures/37_pain_chocolat.png,0.464,approach,11.34421134,0.431,0,0.374358974,0.374358974,11.34421134,0.033,0,1,57,0,57,0,1,,,,
,,,Marie-testing-againandagainandagaaaaain,fr,2026-04-21_11h19.01.465,AAT,2024.2.4,iPhone,50,https://run.pavlovia.org/LNS/hub/,AAT,,,,,329.258,329.608,,,,,,,,,,,,,,,,,,,,,,,,,,,,,,329.609,330.291,3,28,Burger (vegetarian),3,1,incompatible,Items_pictures/28_veg_burger.png,0.581,avoid,4.621715733,0.527,0,0.35042735,0.24957265,4.241848686,0.054,0,1,58,0,58,0,1,,,,
,,,Marie-testing-againandagainandagaaaaain,fr,2026-04-21_11h19.01.465,AAT,2024.2.4,iPhone,50,https://run.pavlovia.org/LNS/hub/,AAT,,,,,330.544,330.994,,,,,,,,,,,,,,,,,,,,,,,,,,,,,,330.994,331.709,3,47,Gummy candies,5,0,compatible,Items_pictures/47_gummy_candy.png,0.647,approach,12.21905666,0.62,0,0.469230769,0.32991453,12.21905666,0.027,0,1,59,0,59,0,1,,,,
,,,Marie-testing-againandagainandagaaaaain,fr,2026-04-21_11h19.01.465,AAT,2024.2.4,iPhone,50,https://run.pavlovia.org/LNS/hub/,AAT,,,,,338.98,339.51,,,,,,,,,,,,,,,,,,,,,,,,,,,,337.043,338.418,339.511,340.259,4,25,French fries,3,1,compatible,Items_pictures/25_fries.png,0.682,approach,12.26747109,0.648,0,0.417094017,0.417094017,12.26747109,0.034,0,1,0,0,0,0,1,331.963,337.042,,
,,,Marie-testing-againandagainandagaaaaain,fr,2026-04-21_11h19.01.465,AAT,2024.2.4,iPhone,50,https://run.pavlovia.org/LNS/hub/,AAT,,,,,340.512,341.063,,,,,,,,,,,,,,,,,,,,,,,,,,,,,,341.064,341.695,4,25,French fries,3,1,compatible,Items_pictures/25_fries.png,0.565,approach,12.71995978,0.548,0,0.44017094,0.216239316,12.71995978,0.017,0,1,1,0,1,0,1,,,,
,,,Marie-testing-againandagainandagaaaaain,fr,2026-04-21_11h19.01.465,AAT,2024.2.4,iPhone,50,https://run.pavlovia.org/LNS/hub/,AAT,,,,,341.949,342.549,,,,,,,,,,,,,,,,,,,,,,,,,,,,,,342.55,343.13,4,17,"Salted nuts (Cashew, peanuts, pistacchios)",2,1,compatible,Items_pictures/17_flips.png,0.531,approach,16.05616606,0.503,0,0.403418803,0.44957265,14.40781441,0.028,0,1,2,0,2,0,1,,,,
,,,Marie-testing-againandagainandagaaaaain,fr,2026-04-21_11h19.01.465,AAT,2024.2.4,iPhone,50,https://run.pavlovia.org/LNS/hub/,AAT,,,,,343.385,343.919,,,,,,,,,,,,,,,,,,,,,,,,,,,,,,343.919,344.484,4,51,Tiramisu,6,0,incompatible,Items_pictures/51_tiramisu.png,0.481,avoid,8.871205423,0.452,0,0.444444444,0.257264957,8.871205423,0.029,0,1,3,0,3,0,1,,,,
,,,Marie-testing-againandagainandagaaaaain,fr,2026-04-21_11h19.01.465,AAT,2024.2.4,iPhone,50,https://run.pavlovia.org/LNS/hub/,AAT,,,,,344.737,345.506,,,,,,,,,,,,,,,,,,,,,,,,,,,,,,345.506,346.169,4,35,Foccacia,4,1,compatible,Items_pictures/35_focaccia.png,0.581,approach,15.42959964,0.562,0,0.472649547,0.293162393,14.34997614,0.019,0,1,4,0,4,0,1,,,,
,,,Marie-testing-againandagainandagaaaaain,fr,2026-04-21_11h19.01.465,AAT,2024.2.4,iPhone,50,https://run.pavlovia.org/LNS/hub/,AAT,,,,,346.424,347.075,,,,,,,,,,,,,,,,,,,,,,,,,,,,,,347.075,347.722,4,9,Healthy cracker (Darvida),1,1,compatible,Items_pictures/9_healthy_cracker.png,0.565,approach,16.05616606,0.551,0,0.439316239,0.224786325,16.05616606,0.014,0,1,5,0,5,0,1,,,,
,,,Marie-testing-againandagainandagaaaaain,fr,2026-04-21_11h19.01.465,AAT,2024.2.4,iPhone,50,https://run.pavlovia.org/LNS/hub/,AAT,,,,,347.977,348.511,,,,,,,,,,,,,,,,,,,,,,,,,,,,,,348.512,349.092,4,59,Cheesecake,6,0,incompatible,Items_pictures/59_cheesecake.png,0.514,avoid,16.83103222,0.501,0,0.365811966,0.218803419,16.83103222,0.013,0,1,6,0,6,0,1,,,,
,,,Marie-testing-againandagainandagaaaaain,fr,2026-04-21_11h19.01.465,AAT,2024.2.4,iPhone,50,https://run.pavlovia.org/LNS/hub/,AAT,,,,,349.346,349.897,,,,,,,,,,,,,,,,,,,,,,,,,,,,,,349.897,350.394,4,59,Cheesecake,6,0,incompatible,Items_pictures/59_cheesecake.png,0.413,avoid,16.02564103,0.393,0,0.429059829,0.320512821,14.23076923,0.02,0,1,7,0,7,0,1,,,,
,,,Marie-testing-againandagainandagaaaaain,fr,2026-04-21_11h19.01.465,AAT,2024.2.4,iPhone,50,https://run.pavlovia.org/LNS/hub/,AAT,,,,,350.648,351.032,,,,,,,,,,,,,,,,,,,,,,,,,,,,,,351.032,351.597,4,9,Healthy cracker (Darvida),1,1,compatible,Items_pictures/9_healthy_cracker.png,0.497,approach,12.97134238,0.48,0,0.442735043,0.220512821,13.67521368,0.017,0,1,8,0,8,0,1,,,,
,,,Marie-testing-againandagainandagaaaaain,fr,2026-04-21_11h19.01.465,AAT,2024.2.4,iPhone,50,https://run.pavlovia.org/LNS/hub/,AAT,,,,,351.85,352.468,,,,,,,,,,,,,,,,,,,,,,,,,,,,,,352.468,353.015,4,15,Flute,2,1,compatible,Items_pictures/15_flute.png,0.48,approach,11.99338296,0.449,0,0.334188034,0.371794872,10.78025917,0.031,0,1,9,0,9,0,1,,,,
,,,Marie-testing-againandagainandagaaaaain,fr,2026-04-21_11h19.01.465,AAT,2024.2.4,iPhone,50,https://run.pavlovia.org/LNS/hub/,AAT,,,,,353.269,353.82,,,,,,,,,,,,,,,,,,,,,,,,,,,,,,353.821,354.401,4,15,Flute,2,1,compatible,Items_pictures/15_flute.png,0.498,approach,15.73655103,0.481,0,0.468376068,0.267521368,15.93765711,0.017,0,1,10,0,10,0,1,,,,
,,,Marie-testing-againandagainandagaaaaain,fr,2026-04-21_11h19.01.465,AAT,2024.2.4,iPhone,50,https://run.pavlovia.org/LNS/hub/,AAT,,,,,354.655,355.173,,,,,,,,,,,,,,,,,,,,,,,,,,,,,,355.173,355.787,4,37,Pain au chocolat,4,0,incompatible,Items_pictures/37_pain_chocolat.png,0.531,avoid,10.5982906,0.501,0,0.384615411,0.317948718,8.148149018,0.03,0,1,11,0,11,0,1,,,,
,,,Marie-testing-againandagainandagaaaaain,fr,2026-04-21_11h19.01.465,AAT,2024.2.4,iPhone,50,https://run.pavlovia.org/LNS/hub/,AAT,,,,,356.041,356.675,,,,,,,,,,,,,,,,,,,,,,,,,,,,,,356.675,357.389,4,12,Crisps,2,1,compatible,Items_pictures/12_crisps.png,0.631,approach,14.1025641,0.615,0,0.387179487,0.225641026,14.1025641,0.016,0,1,12,0,12,0,1,,,,
,,,Marie-testing-againandagainandagaaaaain,fr,2026-04-21_11h19.01.465,AAT,2024.2.4,iPhone,50,https://run.pavlovia.org/LNS/hub/,AAT,,,,,357.643,358.061,,,,,,,,,,,,,,,,,,,,,,,,,,,,,,358.061,358.658,4,9,Healthy cracker (Darvida),1,1,compatible,Items_pictures/9_healthy_cracker.png,0.519,approach,38.03418803,0.513,0,0.411111111,0.228205128,26.78062678,0.006,0,1,13,0,13,0,1,,,,
,,,Marie-testing-againandagainandagaaaaain,fr,2026-04-21_11h19.01.465,AAT,2024.2.4,iPhone,50,https://run.pavlovia.org/LNS/hub/,AAT,,,,,358.912,359.596,,,,,,,,,,,,,,,,,,,,,,,,,,,,,,359.597,360.211,4,35,Foccacia,4,1,compatible,Items_pictures/35_focaccia.png,0.547,approach,11.3960114,0.514,0,0.376068376,0.376068376,11.3960114,0.033,0,1,14,0,14,0,1,,,,
,,,Marie-testing-againandagainandagaaaaain,fr,2026-04-21_11h19.01.465,AAT,2024.2.4,iPhone,50,https://run.pavlovia.org/LNS/hub/,AAT,,,,,360.465,361.166,,,,,,,,,,,,,,,,,,,,,,,,,,,,,,361.167,361.798,4,41,"Chocolate snacks (e.g. Kinder, Knoppers)",5,0,incompatible,Items_pictures/41_chocolate_snack.png,0.564,avoid,6.000348857,0.515,0,0.352136778,0.294017094,4.901448291,0.049,0,1,15,0,15,0,1,,,,
,,,Marie-testing-againandagainandagaaaaain,fr,2026-04-21_11h19.01.465,AAT,2024.2.4,iPhone,50,https://run.pavlovia.org/LNS/hub/,AAT,,,,,362.051,362.569,,,,,,,,,,,,,,,,,,,,,,,,,,,,,,362.57,363.501,4,15,Flute,2,1,compatible,Items_pictures/15_flute.png,0.848,approach,9.712509713,0.815,0,0.443589744,0.320512821,9.712509713,0.033,0,1,16,0,16,0,1,,,,
,,,Marie-testing-againandagainandagaaaaain,fr,2026-04-21_11h19.01.465,AAT,2024.2.4,iPhone,50,https://run.pavlovia.org/LNS/hub/,AAT,,,,,363.754,364.389,,,,,,,,,,,,,,,,,,,,,,,,,,,,,,364.389,365.052,4,11,Crisps,2,1,compatible,Items_pictures/11_crisps.png,0.598,approach,12.73209549,0.569,0,0.369230769,0.369230769,12.73209549,0.029,0,1,17,0,17,0,1,,,,
,,,Marie-testing-againandagainandagaaaaain,fr,2026-04-21_11h19.01.465,AAT,2024.2.4,iPhone,50,https://run.pavlovia.org/LNS/hub/,AAT,,,,,365.306,366.024,,,,,,,,,,,,,,,,,,,,,,,,,,,,,,366.025,366.755,4,22,Pizza (vegetarian),3,1,compatible,Items_pictures/22_veg_pizza.png,0.647,approach,9.054487179,0.615,0,0.425641026,0.28974359,9.054487179,0.032,0,1,18,0,18,0,1,,,,
,,,Marie-testing-againandagainandagaaaaain,fr,2026-04-21_11h19.01.465,AAT,2024.2.4,iPhone,50,https://run.pavlovia.org/LNS/hub/,AAT,,,,,367.01,367.578,,,,,,,,,,,,,,,,,,,,,,,,,,,,,,367.578,368.208,4,31,Croissant,4,0,incompatible,Items_pictures/31_croissant.png,0.548,avoid,6.08974359,0.5,0,0.401709402,0.292307692,6.08974359,0.048,0,1,19,0,19,0,1,,,,
,,,Marie-testing-againandagainandagaaaaain,fr,2026-04-21_11h19.01.465,AAT,2024.2.4,iPhone,50,https://run.pavlovia.org/LNS/hub/,AAT,,,,,368.462,368.946,,,,,,,,,,,,,,,,,,,,,,,,,,,,,,368.946,369.743,4,30,Onion rings,3,1,compatible,Items_pictures/30_onion_rings.png,0.714,approach,15.57454891,0.696,0,0.371794846,0.28034188,13.58024546,0.018,0,1,20,0,20,0,1,,,,
,,,Marie-testing-againandagainandagaaaaain,fr,2026-04-21_11h19.01.465,AAT,2024.2.4,iPhone,50,https://run.pavlovia.org/LNS/hub/,AAT,,,,,369.998,370.766,,,,,,,,,,,,,,,,,,,,,,,,,,,,,,370.766,371.43,4,51,Tiramisu,6,0,incompatible,Items_pictures/51_tiramisu.png,0.564,avoid,7.102858827,0.535,0,0.388034188,0.205982906,7.102858827,0.029,0,1,21,0,21,0,1,,,,
,,,Marie-testing-againandagainandagaaaaain,fr,2026-04-21_11h19.01.465,AAT,2024.2.4,iPhone,50,https://run.pavlovia.org/LNS/hub/,AAT,,,,,371.684,372.086,,,,,,,,,,,,,,,,,,,,,,,,,,,,,,372.086,372.732,4,25,French fries,3,1,compatible,Items_pictures/25_fries.png,0.581,approach,11.53846154,0.549,0,0.310256436,0.369230769,9.695513636,0.032,0,1,22,0,22,0,1,,,,
,,,Marie-testing-againandagainandagaaaaain,fr,2026-04-21_11h19.01.465,AAT,2024.2.4,iPhone,50,https://run.pavlovia.org/LNS/hub/,AAT,,,,,372.986,373.738,,,,,,,,,,,,,,,,,,,,,,,,,,,,,,373.738,374.402,4,22,Pizza (vegetarian),3,1,compatible,Items_pictures/22_veg_pizza.png,0.582,approach,13.32327803,0.565,0,0.41025641,0.226495726,13.32327803,0.017,0,1,23,0,23,0,1,,,,
,,,Marie-testing-againandagainandagaaaaain,fr,2026-04-21_11h19.01.465,AAT,2024.2.4,iPhone,50,https://run.pavlovia.org/LNS/hub/,AAT,,,,,374.656,375.374,,,,,,,,,,,,,,,,,,,,,,,,,,,,,,375.375,376.073,4,40,Tresse,4,0,incompatible,Items_pictures/40_tresse.png,0.631,avoid,6.873977087,0.584,0,0.447008547,0.323076923,6.873977087,0.047,0,1,24,0,24,0,1,,,,
,,,Marie-testing-againandagainandagaaaaain,fr,2026-04-21_11h19.01.465,AAT,2024.2.4,iPhone,50,https://run.pavlovia.org/LNS/hub/,AAT,,,,,376.327,376.711,,,,,,,,,,,,,,,,,,,,,,,,,,,,,,376.711,377.475,4,9,Healthy cracker (Darvida),1,1,compatible,Items_pictures/9_healthy_cracker.png,0.665,approach,12.20322887,0.647,0,0.462393162,0.21965812,11.01614435,0.018,0,1,25,0,25,0,1,,,,
,,,Marie-testing-againandagainandagaaaaain,fr,2026-04-21_11h19.01.465,AAT,2024.2.4,iPhone,50,https://run.pavlovia.org/LNS/hub/,AAT,,,,,377.73,378.18,,,,,,,,,,,,,,,,,,,,,,,,,,,,,,378.181,378.794,4,35,Foccacia,4,1,compatible,Items_pictures/35_focaccia.png,0.531,approach,18.42948718,0.515,0,0.362393136,0.294871795,11.21794709,0.016,0,1,26,0,26,0,1,,,,
,,,Marie-testing-againandagainandagaaaaain,fr,2026-04-21_11h19.01.465,AAT,2024.2.4,iPhone,50,https://run.pavlovia.org/LNS/hub/,AAT,,,,,379.049,379.599,,,,,,,,,,,,,,,,,,,,,,,,,,,,,,379.6,380.28,4,5,Bell pepper,1,1,compatible,Items_pictures/5_bell_pepper.png,0.598,approach,17.47863248,0.578,0,0.470940171,0.34957265,15.68376068,0.02,0,1,27,0,27,0,1,,,,
,,,Marie-testing-againandagainandagaaaaain,fr,2026-04-21_11h19.01.465,AAT,2024.2.4,iPhone,50,https://run.pavlovia.org/LNS/hub/,AAT,,,,,380.535,381.186,,,,,,,,,,,,,,,,,,,,,,,,,,,,,,381.186,381.833,4,40,Tresse,4,0,incompatible,Items_pictures/40_tresse.png,0.564,avoid,8.107448107,0.529,0,0.385470085,0.283760684,7.496947497,0.035,0,1,28,0,28,0,1,,,,
,,,Marie-testing-againandagainandagaaaaain,fr,2026-04-21_11h19.01.465,AAT,2024.2.4,iPhone,50,https://run.pavlovia.org/LNS/hub/,AAT,,,,,382.087,382.654,,,,,,,,,,,,,,,,,,,,,,,,,,,,,,382.655,383.218,4,11,Crisps,2,1,compatible,Items_pictures/11_crisps.png,0.497,approach,14.46886447,0.483,0,0.383760684,0.202564103,14.46886447,0.014,0,1,29,0,29,0,1,,,,
,,,Marie-testing-againandagainandagaaaaain,fr,2026-04-21_11h19.01.465,AAT,2024.2.4,iPhone,50,https://run.pavlovia.org/LNS/hub/,AAT,,,,,383.473,384.124,,,,,,,,,,,,,,,,,,,,,,,,,,,,,,384.124,385.056,4,40,Tresse,4,0,incompatible,Items_pictures/40_tresse.png,0.865,avoid,5.727771399,0.798,0,0.383760684,0.383760684,5.727771399,0.067,0,1,30,0,30,0,1,,,,
,,,Marie-testing-againandagainandagaaaaain,fr,2026-04-21_11h19.01.465,AAT,2024.2.4,iPhone,50,https://run.pavlovia.org/LNS/hub/,AAT,,,,,385.309,385.76,,,,,,,,,,,,,,,,,,,,,,,,,,,,,,385.76,386.408,4,10,"Dried fruits (apricot, mango)",1,0,incompatible,Items_pictures/10_dried_fruits.png,0.564,avoid,9.200603318,0.53,0,0.347863222,0.312820513,8.396178217,0.034,0,1,31,0,31,0,1,,,,
,,,Marie-testing-againandagainandagaaaaain,fr,2026-04-21_11h19.01.465,AAT,2024.2.4,iPhone,50,https://run.pavlovia.org/LNS/hub/,AAT,,,,,386.662,387.279,,,,,,,,,,,,,,,,,,,,,,,,,,,,,,387.28,387.876,4,49,Chocolate cookies,5,0,incompatible,Items_pictures/49_chocolate_cookie.png,0.531,avoid,18.19291819,0.517,0,0.25641023,0.254700855,8.608056745,0.014,0,1,32,0,32,0,1,,,,
,,,Marie-testing-againandagainandagaaaaain,fr,2026-04-21_11h19.01.465,AAT,2024.2.4,iPhone,50,https://run.pavlovia.org/LNS/hub/,AAT,,,,,388.131,388.615,,,,,,,,,,,,,,,,,,,,,,,,,,,,,,388.616,389.335,4,47,Gummy candies,5,0,incompatible,Items_pictures/47_gummy_candy.png,0.631,avoid,9.188034188,0.595,0,0.376923103,0.330769231,8.547009272,0.036,0,1,33,0,33,0,1,,,,
,,,Marie-testing-againandagainandagaaaaain,fr,2026-04-21_11h19.01.465,AAT,2024.2.4,iPhone,50,https://run.pavlovia.org/LNS/hub/,AAT,,,,,389.6,390.168,,,,,,,,,,,,,,,,,,,,,,,,,,,,,,390.168,390.849,4,4,Plain yogurt,1,0,incompatible,Items_pictures/4_plain_yogurt.png,0.599,avoid,6.008044243,0.565,0,0.382905983,0.204273504,6.008044243,0.034,0,1,34,0,34,0,1,,,,
,,,Marie-testing-againandagainandagaaaaain,fr,2026-04-21_11h19.01.465,AAT,2024.2.4,iPhone,50,https://run.pavlovia.org/LNS/hub/,AAT,,,,,391.103,391.52,,,,,,,,,,,,,,,,,,,,,,,,,,,,,,391.52,392.25,4,22,Pizza (vegetarian),3,1,compatible,Items_pictures/22_veg_pizza.png,0.647,approach,15.57454891,0.629,0,0.325641,0.28034188,12.29819418,0.018,0,1,35,0,35,0,1,,,,
,,,Marie-testing-againandagainandagaaaaain,fr,2026-04-21_11h19.01.465,AAT,2024.2.4,iPhone,50,https://run.pavlovia.org/LNS/hub/,AAT,,,,,392.505,392.823,,,,,,,,,,,,,,,,,,,,,,,,,,,,,,392.823,393.554,4,31,Croissant,4,0,incompatible,Items_pictures/31_croissant.png,0.648,avoid,9.427609428,0.615,0,0.327350401,0.311111111,6.526805736,0.033,0,1,36,0,36,0,1,,,,
,,,Marie-testing-againandagainandagaaaaain,fr,2026-04-21_11h19.01.465,AAT,2024.2.4,iPhone,50,https://run.pavlovia.org/LNS/hub/,AAT,,,,,393.807,394.475,,,,,,,,,,,,,,,,,,,,,,,,,,,,,,394.476,395.14,4,22,Pizza (vegetarian),3,1,compatible,Items_pictures/22_veg_pizza.png,0.597,approach,11.08262108,0.567,0,0.516239316,0.332478632,11.08262108,0.03,0,1,37,0,37,0,1,,,,
,,,Marie-testing-againandagainandagaaaaain,fr,2026-04-21_11h19.01.465,AAT,2024.2.4,iPhone,50,https://run.pavlovia.org/LNS/hub/,AAT,,,,,395.394,396.162,,,,,,,,,,,,,,,,,,,,,,,,,,,,,,396.164,397.431,4,49,Chocolate cookies,5,0,incompatible,Items_pictures/49_chocolate_cookie.png,0.648,avoid,6.306306306,0.611,0,0.288034214,0.233333333,5.47470618,0.037,0,1,38,0,38,0,1,,,,
,,,Marie-testing-againandagainandagaaaaain,fr,2026-04-21_11h19.01.465,AAT,2024.2.4,iPhone,50,https://run.pavlovia.org/LNS/hub/,AAT,,,,,397.698,398.433,,,,,,,,,,,,,,,,,,,,,,,,,,,,,,398.434,399.164,4,5,Bell pepper,1,1,compatible,Items_pictures/5_bell_pepper.png,0.649,approach,16.72008547,0.633,0,0.307692308,0.267521368,9.829059829,0.016,0,1,39,0,39,0,1,,,,
,,,Marie-testing-againandagainandagaaaaain,fr,2026-04-21_11h19.01.465,AAT,2024.2.4,iPhone,50,https://run.pavlovia.org/LNS/hub/,AAT,,,,,399.418,399.852,,,,,,,,,,,,,,,,,,,,,,,,,,,,,,399.852,400.533,4,12,Crisps,2,1,compatible,Items_pictures/12_crisps.png,0.598,approach,21.73382173,0.584,0,0.371794846,0.304273504,12.63736077,0.014,0,1,40,0,40,0,1,,,,
,,,Marie-testing-againandagainandagaaaaain,fr,2026-04-21_11h19.01.465,AAT,2024.2.4,iPhone,50,https://run.pavlovia.org/LNS/hub/,AAT,,,,,400.787,401.154,,,,,,,,,,,,,,,,,,,,,,,,,,,,,,401.155,401.802,4,47,Gummy candies,5,0,incompatible,Items_pictures/47_gummy_candy.png,0.564,avoid,6.971153846,0.532,0,0.304273478,0.223076923,4.727563287,0.032,0,1,41,0,41,0,1,,,,
,,,Marie-testing-againandagainandagaaaaain,fr,2026-04-21_11h19.01.465,AAT,2024.2.4,iPhone,50,https://run.pavlovia.org/LNS/hub/,AAT,,,,,402.056,402.54,,,,,,,,,,,,,,,,,,,,,,,,,,,,,,402.541,403.205,4,41,"Chocolate snacks (e.g. Kinder, Knoppers)",5,0,incompatible,Items_pictures/41_chocolate_snack.png,0.597,approach,16.93376068,0.581,0,0.424786325,0.270940171,16.93376068,0.016,0,1,42,0,42,0,1,,,,
,,,Marie-testing-againandagainandagaaaaain,fr,2026-04-21_11h19.01.465,AAT,2024.2.4,iPhone,50,https://run.pavlovia.org/LNS/hub/,AAT,,,,,403.459,403.976,,,,,,,,,,,,,,,,,,,,,,,,,,,,,,403.977,404.49,4,28,Burger (vegetarian),3,1,compatible,Items_pictures/28_veg_burger.png,0.447,approach,13.43943413,0.418,0,0.38974359,0.38974359,13.43943413,0.029,0,1,43,0,43,0,1,,,,
,,,Marie-testing-againandagainandagaaaaain,fr,2026-04-21_11h19.01.465,AAT,2024.2.4,iPhone,50,https://run.pavlovia.org/LNS/hub/,AAT,,,,,404.744,405.161,,,,,,,,,,,,,,,,,,,,,,,,,,,,,,405.162,406.414,4,4,Plain yogurt,1,0,incompatible,Items_pictures/4_plain_yogurt.png,0.716,avoid,6.535947712,0.682,0,0.294871795,0.222222222,6.535947712,0.034,0,1,44,0,44,0,1,,,,
,,,Marie-testing-againandagainandagaaaaain,fr,2026-04-21_11h19.01.465,AAT,2024.2.4,iPhone,50,https://run.pavlovia.org/LNS/hub/,AAT,,,,,406.665,407.132,,,,,,,,,,,,,,,,,,,,,,,,,,,,,,407.132,407.68,4,41,"Chocolate snacks (e.g. Kinder, Knoppers)",5,0,incompatible,Items_pictures/41_chocolate_snack.png,0.464,avoid,6.811706812,0.431,0,0.354700881,0.224786325,6.086506877,0.033,0,1,45,0,45,0,1,,,,
,,,Marie-testing-againandagainandagaaaaain,fr,2026-04-21_11h19.01.465,AAT,2024.2.4,iPhone,50,https://run.pavlovia.org/LNS/hub/,AAT,,,,,407.933,408.618,,,,,,,,,,,,,,,,,,,,,,,,,,,,,,408.618,409.216,4,15,Flute,2,1,compatible,Items_pictures/15_flute.png,0.514,approach,8.987308987,0.481,0,0.314529941,0.296581197,5.982906773,0.033,0,1,46,0,46,0,1,,,,
,,,Marie-testing-againandagainandagaaaaain,fr,2026-04-21_11h19.01.465,AAT,2024.2.4,iPhone,50,https://run.pavlovia.org/LNS/hub/,AAT,,,,,409.47,409.987,,,,,,,,,,,,,,,,,,,,,,,,,,,,,,409.988,410.684,4,35,Foccacia,4,1,compatible,Items_pictures/35_focaccia.png,0.631,approach,14.05508072,0.613,0,0.391453018,0.252991453,12.20323032,0.018,0,1,47,0,47,0,1,,,,
,,,Marie-testing-againandagainandagaaaaain,fr,2026-04-21_11h19.01.465,AAT,2024.2.4,iPhone,50,https://run.pavlovia.org/LNS/hub/,AAT,,,,,410.939,411.44,,,,,,,,,,,,,,,,,,,,,,,,,,,,,,411.44,412.121,4,10,"Dried fruits (apricot, mango)",1,0,incompatible,Items_pictures/10_dried_fruits.png,0.581,avoid,14.0491453,0.565,0,0.335897436,0.224786325,7.905982906,0.016,0,1,48,0,48,0,1,,,,
,,,Marie-testing-againandagainandagaaaaain,fr,2026-04-21_11h19.01.465,AAT,2024.2.4,iPhone,50,https://run.pavlovia.org/LNS/hub/,AAT,,,,,412.375,412.742,,,,,,,,,,,,,,,,,,,,,,,,,,,,,,412.742,413.406,4,25,French fries,3,1,compatible,Items_pictures/25_fries.png,0.584,approach,39.88603989,0.578,0,0.306837607,0.239316239,25.78347578,0.006,0,1,49,0,49,0,1,,,,
,,,Marie-testing-againandagainandagaaaaain,fr,2026-04-21_11h19.01.465,AAT,2024.2.4,iPhone,50,https://run.pavlovia.org/LNS/hub/,AAT,,,,,413.66,414.162,,,,,,,,,,,,,,,,,,,,,,,,,,,,,,414.163,414.76,4,12,Crisps,2,1,compatible,Items_pictures/12_crisps.png,0.514,approach,15.72649573,0.499,0,0.392307692,0.235897436,15.72649573,0.015,0,1,50,0,50,0,1,,,,
,,,Marie-testing-againandagainandagaaaaain,fr,2026-04-21_11h19.01.465,AAT,2024.2.4,iPhone,50,https://run.pavlovia.org/LNS/hub/,AAT,,,,,415.014,415.316,,,,,,,,,,,,,,,,,,,,,,,,,,,,,,415.317,415.845,4,28,Burger (vegetarian),3,1,compatible,Items_pictures/28_veg_burger.png,0.447,approach,12.7702363,0.43,0,0.291452965,0.217094017,8.295624408,0.017,0,1,51,0,51,0,1,,,,
,,,Marie-testing-againandagainandagaaaaain,fr,2026-04-21_11h19.01.465,AAT,2024.2.4,iPhone,50,https://run.pavlovia.org/LNS/hub/,AAT,,,,,416.099,416.399,,,,,,,,,,,,,,,,,,,,,,,,,,,,,,416.399,417.064,4,48,Sour candies,5,0,incompatible,Items_pictures/48_sour_candy.png,0.564,avoid,7.39758326,0.535,0,0.398290598,0.214529915,7.39758326,0.029,0,1,52,0,52,0,1,,,,
,,,Marie-testing-againandagainandagaaaaain,fr,2026-04-21_11h19.01.465,AAT,2024.2.4,iPhone,50,https://run.pavlovia.org/LNS/hub/,AAT,,,,,417.317,417.652,,,,,,,,,,,,,,,,,,,,,,,,,,,,,,417.652,418.904,4,11,Crisps,2,1,compatible,Items_pictures/11_crisps.png,,none,,,0,0,,,,,0,53,0,53,0,1,,,,
,,,Marie-testing-againandagainandagaaaaain,fr,2026-04-21_11h19.01.465,AAT,2024.2.4,iPhone,50,https://run.pavlovia.org/LNS/hub/,AAT,,,,,419.168,419.689,,,,,,,,,,,,,,,,,,,,,,,,,,,,,,419.689,420.22,4,11,Crisps,2,1,compatible,Items_pictures/11_crisps.png,0.447,approach,18.08021039,0.434,0,0.38034188,0.235042735,18.08021039,0.013,0,1,54,0,54,0,1,,,,
,,,Marie-testing-againandagainandagaaaaain,fr,2026-04-21_11h19.01.465,AAT,2024.2.4,iPhone,50,https://run.pavlovia.org/LNS/hub/,AAT,,,,,420.474,421.175,,,,,,,,,,,,,,,,,,,,,,,,,,,,,,421.175,421.774,4,59,Cheesecake,6,0,incompatible,Items_pictures/59_cheesecake.png,0.498,avoid,4.564102564,0.448,0,0.364102564,0.228205128,4.564102564,0.05,0,1,55,0,55,0,1,,,,
,,,Marie-testing-againandagainandagaaaaain,fr,2026-04-21_11h19.01.465,AAT,2024.2.4,iPhone,50,https://run.pavlovia.org/LNS/hub/,AAT,,,,,422.027,422.745,,,,,,,,,,,,,,,,,,,,,,,,,,,,,,422.745,423.997,4,12,Crisps,2,1,compatible,Items_pictures/12_crisps.png,0.698,avoid,5.555555556,0.65,0,0.326495726,0.266666667,5.555555556,0.048,0,1,56,0,56,0,1,,,,
,,,Marie-testing-againandagainandagaaaaain,fr,2026-04-21_11h19.01.465,AAT,2024.2.4,iPhone,50,https://run.pavlovia.org/LNS/hub/,AAT,,,,,424.265,424.565,,,,,,,,,,,,,,,,,,,,,,,,,,,,,,424.565,425.818,4,31,Croissant,4,0,incompatible,Items_pictures/31_croissant.png,0.631,avoid,5.333333333,0.581,0,0.294871769,0.266666667,4.837606316,0.05,0,1,57,0,57,0,1,,,,
,,,Marie-testing-againandagainandagaaaaain,fr,2026-04-21_11h19.01.465,AAT,2024.2.4,iPhone,50,https://run.pavlovia.org/LNS/hub/,AAT,,,,,426.068,426.803,,,,,,,,,,,,,,,,,,,,,,,,,,,,,,426.804,427.435,4,15,Flute,2,1,compatible,Items_pictures/15_flute.png,0.565,approach,6.164206164,0.532,0,0.347863222,0.203418803,5.464904674,0.033,0,1,58,0,58,0,1,,,,
,,,Marie-testing-againandagainandagaaaaain,fr,2026-04-21_11h19.01.465,AAT,2024.2.4,iPhone,50,https://run.pavlovia.org/LNS/hub/,AAT,,,,,427.688,428.473,,,,,,,,,,,,,,,,,,,,,,,,,,,,,,428.474,429.124,4,10,"Dried fruits (apricot, mango)",1,0,incompatible,Items_pictures/10_dried_fruits.png,0.548,avoid,4.782687761,0.501,0,0.360683761,0.224786325,4.782687761,0.047,0,1,59,0,59,0,1,,,,
,,,Marie-testing-againandagainandagaaaaain,fr,2026-04-21_11h19.01.465,AAT,2024.2.4,iPhone,50,https://run.pavlovia.org/LNS/hub/,AAT,,,,,,,,,,,,,,,,,,,,,,,,,,,,,,,,,,,,,,,,,,,,,,,,,,,,,,,,,,,,,,429.376,429.377,432.383
