ruleOrder,Setup.started,Setup.stopped,participant,lang,date,expName,psychopyVersion,OS,frameRate,hub,task,GNG_instructions.started,GNG_instructions.stopped,Practice_instructions.started,Practice_instructions.stopped,Fixation.started,Fixation.stopped,Practice.started,Practice.stopped,ITI.started,ITI.stopped,practice_loop.thisRepN,practice_loop.thisTrialN,practice_loop.thisN,practice_loop.thisIndex,practice_loop.ran,Food_item,Food_name,Category,Cat_name,Meat,Image_file0,Cond,Practice_image_file,Block_start_2.started,Block_start_2.stopped,Trial.started,Trial.stopped,responded,rt,resp_source,isGo,hit,miss,false_alarm,correct_rejection,trial_loop.thisRepN,trial_loop.thisTrialN,trial_loop.thisN,trial_loop.thisIndex,trial_loop.ran,block_loop.thisRepN,block_loop.thisTrialN,block_loop.thisN,block_loop.thisIndex,block_loop.ran,Bye.started,Bye.stopped
0,0.005,0.005,Marie-testing-againandagainandagaaaaain,fr,2026-04-21_10h52.40.007,GNG,2024.2.4,iPhone,58.82352941,https://run.pavlovia.org/LNS/hub/,GNG,,,,,,,,,,,,,,,,,,,,,,,,,,,,,,,,,,,,,,,,,,,,,,,
,,,Marie-testing-againandagainandagaaaaain,fr,2026-04-21_10h52.40.007,GNG,2024.2.4,iPhone,58.82352941,https://run.pavlovia.org/LNS/hub/,GNG,0.005,1.276,,,,,,,,,,,,,,,,,,,,,,,,,,,,,,,,,,,,,,,,,,,,,
,,,Marie-testing-againandagainandagaaaaain,fr,2026-04-21_10h52.40.007,GNG,2024.2.4,iPhone,58.82352941,https://run.pavlovia.org/LNS/hub/,GNG,,,1.277,3.427,,,,,,,,,,,,,,,,,,,,,,,,,,,,,,,,,,,,,,,,,,,
,,,Marie-testing-againandagainandagaaaaain,fr,2026-04-21_10h52.40.007,GNG,2024.2.4,iPhone,58.82352941,https://run.pavlovia.org/LNS/hub/,GNG,,,,,3.428,3.724,,,,,,,,,,,,,,,,,,,,,,,,,,,,,,,,,,,,,,,,,
,,,Marie-testing-againandagainandagaaaaain,fr,2026-04-21_10h52.40.007,GNG,2024.2.4,iPhone,58.82352941,https://run.pavlovia.org/LNS/hub/,GNG,,,,,,,3.734,4.58,4.843,5.344,0,0,0,2,1,3,,0,Practice,0,Practice_sushi,1,Practice_pictures/Practice_sushi.png,,,,,,,,,,,,,,,,,,,,,,,,
,,,Marie-testing-againandagainandagaaaaain,fr,2026-04-21_10h52.40.007,GNG,2024.2.4,iPhone,58.82352941,https://run.pavlovia.org/LNS/hub/,GNG,,,,,,,5.345,6.004,6.262,7.013,0,1,1,1,1,2,,0,Practice,0,Practice_kiwi,0,Practice_pictures/Practice_kiwi.png,,,,,,,,,,,,,,,,,,,,,,,,
,,,Marie-testing-againandagainandagaaaaain,fr,2026-04-21_10h52.40.007,GNG,2024.2.4,iPhone,58.82352941,https://run.pavlovia.org/LNS/hub/,GNG,,,,,,,7.014,8.266,8.533,8.866,0,2,2,0,1,1,,0,Practice,0,Practice_brocoli.png,1,Practice_pictures/Practice_brocoli.png,,,,,,,,,,,,,,,,,,,,,,,,
,,,Marie-testing-againandagainandagaaaaain,fr,2026-04-21_10h52.40.007,GNG,2024.2.4,iPhone,58.82352941,https://run.pavlovia.org/LNS/hub/,GNG,,,,,,,8.867,9.358,9.618,10.152,0,3,3,3,1,4,,0,Practice,0,Practice_cake,0,Practice_pictures/Practice_cake.png,,,,,,,,,,,,,,,,,,,,,,,,
,,,Marie-testing-againandagainandagaaaaain,fr,2026-04-21_10h52.40.007,GNG,2024.2.4,iPhone,58.82352941,https://run.pavlovia.org/LNS/hub/,GNG,,,,,11.41,11.705,,,12.49,13.058,,,,,,30,Onion rings,3,,,,1,,10.156,11.41,11.71,12.227,1,0.454,tap,1,1,0,0,0,0,0,0,0,1,,,,,,,
,,,Marie-testing-againandagainandagaaaaain,fr,2026-04-21_10h52.40.007,GNG,2024.2.4,iPhone,58.82352941,https://run.pavlovia.org/LNS/hub/,GNG,,,,,,,,,13.776,14.293,,,,,,17,"Salted nuts (Cashew, peanuts, pistacchios)",2,,,,1,,,,13.059,13.513,1,0.388,tap,1,1,0,0,0,1,0,1,0,1,,,,,,,
,,,Marie-testing-againandagainandagaaaaain,fr,2026-04-21_10h52.40.007,GNG,2024.2.4,iPhone,58.82352941,https://run.pavlovia.org/LNS/hub/,GNG,,,,,,,,,15.011,15.529,,,,,,15,Flute,2,,,,1,,,,14.294,14.748,1,0.388,tap,1,1,0,0,0,2,0,2,0,1,,,,,,,
,,,Marie-testing-againandagainandagaaaaain,fr,2026-04-21_10h52.40.007,GNG,2024.2.4,iPhone,58.82352941,https://run.pavlovia.org/LNS/hub/,GNG,,,,,,,,,16.247,16.714,,,,,,30,Onion rings,3,,,,1,,,,15.529,15.988,1,0.393,tap,1,1,0,0,0,3,0,3,0,1,,,,,,,
,,,Marie-testing-againandagainandagaaaaain,fr,2026-04-21_10h52.40.007,GNG,2024.2.4,iPhone,58.82352941,https://run.pavlovia.org/LNS/hub/,GNG,,,,,,,,,17.433,17.833,,,,,,25,French fries,3,,,,1,,,,16.715,17.17,1,0.389,tap,1,1,0,0,0,4,0,4,0,1,,,,,,,
,,,Marie-testing-againandagainandagaaaaain,fr,2026-04-21_10h52.40.007,GNG,2024.2.4,iPhone,58.82352941,https://run.pavlovia.org/LNS/hub/,GNG,,,,,,,,,18.585,18.886,,,,,,28,Burger (vegetarian),3,,,,1,,,,17.834,18.326,1,0.425,tap,1,1,0,0,0,5,0,5,0,1,,,,,,,
,,,Marie-testing-againandagainandagaaaaain,fr,2026-04-21_10h52.40.007,GNG,2024.2.4,iPhone,58.82352941,https://run.pavlovia.org/LNS/hub/,GNG,,,,,,,,,19.671,20.205,,,,,,22,Pizza (vegetarian),3,,,,1,,,,18.886,19.412,1,0.46,tap,1,1,0,0,0,6,0,6,0,1,,,,,,,
,,,Marie-testing-againandagainandagaaaaain,fr,2026-04-21_10h52.40.007,GNG,2024.2.4,iPhone,58.82352941,https://run.pavlovia.org/LNS/hub/,GNG,,,,,,,,,20.957,21.591,,,,,,11,Crisps,2,,,,1,,,,20.205,20.693,1,0.421,tap,1,1,0,0,0,7,0,7,0,1,,,,,,,
,,,Marie-testing-againandagainandagaaaaain,fr,2026-04-21_10h52.40.007,GNG,2024.2.4,iPhone,58.82352941,https://run.pavlovia.org/LNS/hub/,GNG,,,,,,,,,22.359,22.709,,,,,,12,Crisps,2,,,,1,,,,21.591,22.096,1,0.438,tap,1,1,0,0,0,8,0,8,0,1,,,,,,,
,,,Marie-testing-againandagainandagaaaaain,fr,2026-04-21_10h52.40.007,GNG,2024.2.4,iPhone,58.82352941,https://run.pavlovia.org/LNS/hub/,GNG,,,,,,,,,23.478,23.795,,,,,,35,Foccacia,4,,,,1,,,,22.71,23.212,1,0.435,tap,1,1,0,0,0,9,0,9,0,1,,,,,,,
,,,Marie-testing-againandagainandagaaaaain,fr,2026-04-21_10h52.40.007,GNG,2024.2.4,iPhone,58.82352941,https://run.pavlovia.org/LNS/hub/,GNG,,,,,,,,,24.713,25.264,,,,,,30,Onion rings,3,,,,1,,,,23.795,24.449,1,0.587,tap,1,1,0,0,0,10,0,10,0,1,,,,,,,
,,,Marie-testing-againandagainandagaaaaain,fr,2026-04-21_10h52.40.007,GNG,2024.2.4,iPhone,58.82352941,https://run.pavlovia.org/LNS/hub/,GNG,,,,,,,,,27.117,27.685,,,,,,41,"Chocolate snacks (e.g. Kinder, Knoppers)",5,,,,0,,,,25.265,26.867,0,,none,0,0,0,0,1,11,0,11,0,1,,,,,,,
,,,Marie-testing-againandagainandagaaaaain,fr,2026-04-21_10h52.40.007,GNG,2024.2.4,iPhone,58.82352941,https://run.pavlovia.org/LNS/hub/,GNG,,,,,,,,,28.47,28.904,,,,,,9,Healthy cracker (Darvida),1,,,,1,,,,27.686,28.207,1,0.471,tap,1,1,0,0,0,12,0,12,0,1,,,,,,,
,,,Marie-testing-againandagainandagaaaaain,fr,2026-04-21_10h52.40.007,GNG,2024.2.4,iPhone,58.82352941,https://run.pavlovia.org/LNS/hub/,GNG,,,,,,,,,30.757,31.508,,,,,,37,Pain au chocolat,4,,,,0,,,,28.905,30.506,0,,none,0,0,0,0,1,13,0,13,0,1,,,,,,,
,,,Marie-testing-againandagainandagaaaaain,fr,2026-04-21_10h52.40.007,GNG,2024.2.4,iPhone,58.82352941,https://run.pavlovia.org/LNS/hub/,GNG,,,,,,,,,32.242,32.726,,,,,,17,"Salted nuts (Cashew, peanuts, pistacchios)",2,,,,1,,,,31.509,31.98,1,0.421,tap,1,1,0,0,0,14,0,14,0,1,,,,,,,
,,,Marie-testing-againandagainandagaaaaain,fr,2026-04-21_10h52.40.007,GNG,2024.2.4,iPhone,58.82352941,https://run.pavlovia.org/LNS/hub/,GNG,,,,,,,,,33.461,33.844,,,,,,11,Crisps,2,,,,1,,,,32.727,33.202,1,0.409,tap,1,1,0,0,0,15,0,15,0,1,,,,,,,
,,,Marie-testing-againandagainandagaaaaain,fr,2026-04-21_10h52.40.007,GNG,2024.2.4,iPhone,58.82352941,https://run.pavlovia.org/LNS/hub/,GNG,,,,,,,,,34.612,35.281,,,,,,28,Burger (vegetarian),3,,,,1,,,,33.845,34.351,1,0.439,tap,1,1,0,0,0,16,0,16,0,1,,,,,,,
,,,Marie-testing-againandagainandagaaaaain,fr,2026-04-21_10h52.40.007,GNG,2024.2.4,iPhone,58.82352941,https://run.pavlovia.org/LNS/hub/,GNG,,,,,,,,,35.981,36.465,,,,,,17,"Salted nuts (Cashew, peanuts, pistacchios)",2,,,,1,,,,35.282,35.718,1,0.371,tap,1,1,0,0,0,17,0,17,0,1,,,,,,,
,,,Marie-testing-againandagainandagaaaaain,fr,2026-04-21_10h52.40.007,GNG,2024.2.4,iPhone,58.82352941,https://run.pavlovia.org/LNS/hub/,GNG,,,,,,,,,38.318,39.019,,,,,,4,Plain yogurt,1,,,,0,,,,36.465,38.067,0,,none,0,0,0,0,1,18,0,18,0,1,,,,,,,
,,,Marie-testing-againandagainandagaaaaain,fr,2026-04-21_10h52.40.007,GNG,2024.2.4,iPhone,58.82352941,https://run.pavlovia.org/LNS/hub/,GNG,,,,,,,,,39.619,40.287,,,,,,11,Crisps,2,,,,1,,,,39.019,39.36,1,0.274,tap,1,1,0,0,0,19,0,19,0,1,,,,,,,
,,,Marie-testing-againandagainandagaaaaain,fr,2026-04-21_10h52.40.007,GNG,2024.2.4,iPhone,58.82352941,https://run.pavlovia.org/LNS/hub/,GNG,,,,,,,,,40.988,41.391,,,,,,35,Foccacia,4,,,,1,,,,40.287,40.725,1,0.371,tap,1,1,0,0,0,20,0,20,0,1,,,,,,,
,,,Marie-testing-againandagainandagaaaaain,fr,2026-04-21_10h52.40.007,GNG,2024.2.4,iPhone,58.82352941,https://run.pavlovia.org/LNS/hub/,GNG,,,,,,,,,43.407,44.142,,,,,,17,"Salted nuts (Cashew, peanuts, pistacchios)",2,,,,1,,,,41.391,42.99,0,,none,1,0,1,0,0,21,0,21,0,1,,,,,,,
,,,Marie-testing-againandagainandagaaaaain,fr,2026-04-21_10h52.40.007,GNG,2024.2.4,iPhone,58.82352941,https://run.pavlovia.org/LNS/hub/,GNG,,,,,,,,,44.827,45.211,,,,,,12,Crisps,2,,,,1,,,,44.143,44.569,1,0.377,tap,1,1,0,0,0,22,0,22,0,1,,,,,,,
,,,Marie-testing-againandagainandagaaaaain,fr,2026-04-21_10h52.40.007,GNG,2024.2.4,iPhone,58.82352941,https://run.pavlovia.org/LNS/hub/,GNG,,,,,,,,,45.962,46.362,,,,,,11,Crisps,2,,,,1,,,,45.211,45.703,1,0.426,tap,1,1,0,0,0,23,0,23,0,1,,,,,,,
,,,Marie-testing-againandagainandagaaaaain,fr,2026-04-21_10h52.40.007,GNG,2024.2.4,iPhone,58.82352941,https://run.pavlovia.org/LNS/hub/,GNG,,,,,,,,,48.215,48.966,,,,,,10,"Dried fruits (apricot, mango)",1,,,,0,,,,46.363,47.965,0,,none,0,0,0,0,1,24,0,24,0,1,,,,,,,
,,,Marie-testing-againandagainandagaaaaain,fr,2026-04-21_10h52.40.007,GNG,2024.2.4,iPhone,58.82352941,https://run.pavlovia.org/LNS/hub/,GNG,,,,,,,,,50.819,51.119,,,,,,40,Tresse,4,,,,0,,,,48.966,50.568,0,,none,0,0,0,0,1,25,0,25,0,1,,,,,,,
,,,Marie-testing-againandagainandagaaaaain,fr,2026-04-21_10h52.40.007,GNG,2024.2.4,iPhone,58.82352941,https://run.pavlovia.org/LNS/hub/,GNG,,,,,,,,,51.905,52.304,,,,,,12,Crisps,2,,,,1,,,,51.12,51.647,1,0.459,tap,1,1,0,0,0,26,0,26,0,1,,,,,,,
,,,Marie-testing-againandagainandagaaaaain,fr,2026-04-21_10h52.40.007,GNG,2024.2.4,iPhone,58.82352941,https://run.pavlovia.org/LNS/hub/,GNG,,,,,,,,,53.022,53.556,,,,,,15,Flute,2,,,,1,,,,52.306,52.761,1,0.39,tap,1,1,0,0,0,27,0,27,0,1,,,,,,,
,,,Marie-testing-againandagainandagaaaaain,fr,2026-04-21_10h52.40.007,GNG,2024.2.4,iPhone,58.82352941,https://run.pavlovia.org/LNS/hub/,GNG,,,,,,,,,54.324,54.708,,,,,,5,Bell pepper,1,,,,1,,,,53.557,54.065,1,0.459,tap,1,1,0,0,0,28,0,28,0,1,,,,,,,
,,,Marie-testing-againandagainandagaaaaain,fr,2026-04-21_10h52.40.007,GNG,2024.2.4,iPhone,58.82352941,https://run.pavlovia.org/LNS/hub/,GNG,,,,,,,,,55.409,55.877,,,,,,12,Crisps,2,,,,1,,,,54.708,55.146,1,0.37,tap,1,1,0,0,0,29,0,29,0,1,,,,,,,
,,,Marie-testing-againandagainandagaaaaain,fr,2026-04-21_10h52.40.007,GNG,2024.2.4,iPhone,58.82352941,https://run.pavlovia.org/LNS/hub/,GNG,,,,,,,,,56.578,57.162,,,,,,12,Crisps,2,,,,1,,,,55.877,56.315,1,0.372,tap,1,1,0,0,0,30,0,30,0,1,,,,,,,
,,,Marie-testing-againandagainandagaaaaain,fr,2026-04-21_10h52.40.007,GNG,2024.2.4,iPhone,58.82352941,https://run.pavlovia.org/LNS/hub/,GNG,,,,,,,,,57.913,58.448,,,,,,25,French fries,3,,,,1,,,,57.162,57.652,1,0.423,tap,1,1,0,0,0,31,0,31,0,1,,,,,,,
,,,Marie-testing-againandagainandagaaaaain,fr,2026-04-21_10h52.40.007,GNG,2024.2.4,iPhone,58.82352941,https://run.pavlovia.org/LNS/hub/,GNG,,,,,,,,,59.282,59.633,,,,,,5,Bell pepper,1,,,,1,,,,58.448,59.027,1,0.513,tap,1,1,0,0,0,32,0,32,0,1,,,,,,,
,,,Marie-testing-againandagainandagaaaaain,fr,2026-04-21_10h52.40.007,GNG,2024.2.4,iPhone,58.82352941,https://run.pavlovia.org/LNS/hub/,GNG,,,,,,,,,60.284,61.018,,,,,,9,Healthy cracker (Darvida),1,,,,1,,,,59.633,60.019,1,0.32,tap,1,1,0,0,0,33,0,33,0,1,,,,,,,
,,,Marie-testing-againandagainandagaaaaain,fr,2026-04-21_10h52.40.007,GNG,2024.2.4,iPhone,58.82352941,https://run.pavlovia.org/LNS/hub/,GNG,,,,,,,,,61.702,62.153,,,,,,9,Healthy cracker (Darvida),1,,,,1,,,,61.019,61.444,1,0.376,tap,1,1,0,0,0,34,0,34,0,1,,,,,,,
,,,Marie-testing-againandagainandagaaaaain,fr,2026-04-21_10h52.40.007,GNG,2024.2.4,iPhone,58.82352941,https://run.pavlovia.org/LNS/hub/,GNG,,,,,,,,,62.771,63.388,,,,,,22,Pizza (vegetarian),3,,,,1,,,,62.154,62.51,1,0.29,tap,1,1,0,0,0,35,0,35,0,1,,,,,,,
,,,Marie-testing-againandagainandagaaaaain,fr,2026-04-21_10h52.40.007,GNG,2024.2.4,iPhone,58.82352941,https://run.pavlovia.org/LNS/hub/,GNG,,,,,,,,,64.056,64.407,,,,,,5,Bell pepper,1,,,,1,,,,63.389,63.792,1,0.337,tap,1,1,0,0,0,36,0,36,0,1,,,,,,,
,,,Marie-testing-againandagainandagaaaaain,fr,2026-04-21_10h52.40.007,GNG,2024.2.4,iPhone,58.82352941,https://run.pavlovia.org/LNS/hub/,GNG,,,,,,,,,65.142,65.826,,,,,,25,French fries,3,,,,1,,,,64.407,64.881,1,0.407,tap,1,1,0,0,0,37,0,37,0,1,,,,,,,
,,,Marie-testing-againandagainandagaaaaain,fr,2026-04-21_10h52.40.007,GNG,2024.2.4,iPhone,58.82352941,https://run.pavlovia.org/LNS/hub/,GNG,,,,,,,,,66.527,67.161,,,,,,15,Flute,2,,,,1,,,,65.826,66.262,1,0.368,tap,1,1,0,0,0,38,0,38,0,1,,,,,,,
,,,Marie-testing-againandagainandagaaaaain,fr,2026-04-21_10h52.40.007,GNG,2024.2.4,iPhone,58.82352941,https://run.pavlovia.org/LNS/hub/,GNG,,,,,,,,,67.813,68.33,,,,,,28,Burger (vegetarian),3,,,,1,,,,67.162,67.553,1,0.342,tap,1,1,0,0,0,39,0,39,0,1,,,,,,,
,,,Marie-testing-againandagainandagaaaaain,fr,2026-04-21_10h52.40.007,GNG,2024.2.4,iPhone,58.82352941,https://run.pavlovia.org/LNS/hub/,GNG,,,,,,,,,68.964,69.465,,,,,,11,Crisps,2,,,,1,,,,68.33,68.705,1,0.309,tap,1,1,0,0,0,40,0,40,0,1,,,,,,,
,,,Marie-testing-againandagainandagaaaaain,fr,2026-04-21_10h52.40.007,GNG,2024.2.4,iPhone,58.82352941,https://run.pavlovia.org/LNS/hub/,GNG,,,,,,,,,70.183,70.767,,,,,,35,Foccacia,4,,,,1,,,,69.465,69.921,1,0.389,tap,1,1,0,0,0,41,0,41,0,1,,,,,,,
,,,Marie-testing-againandagainandagaaaaain,fr,2026-04-21_10h52.40.007,GNG,2024.2.4,iPhone,58.82352941,https://run.pavlovia.org/LNS/hub/,GNG,,,,,,,,,71.568,72.186,,,,,,5,Bell pepper,1,,,,1,,,,70.767,71.308,1,0.475,tap,1,1,0,0,0,42,0,42,0,1,,,,,,,
,,,Marie-testing-againandagainandagaaaaain,fr,2026-04-21_10h52.40.007,GNG,2024.2.4,iPhone,58.82352941,https://run.pavlovia.org/LNS/hub/,GNG,,,,,,,,,72.921,73.655,,,,,,28,Burger (vegetarian),3,,,,1,,,,72.187,72.657,1,0.404,tap,1,1,0,0,0,43,0,43,0,1,,,,,,,
,,,Marie-testing-againandagainandagaaaaain,fr,2026-04-21_10h52.40.007,GNG,2024.2.4,iPhone,58.82352941,https://run.pavlovia.org/LNS/hub/,GNG,,,,,,,,,74.357,74.824,,,,,,9,Healthy cracker (Darvida),1,,,,1,,,,73.656,74.099,1,0.394,tap,1,1,0,0,0,44,0,44,0,1,,,,,,,
,,,Marie-testing-againandagainandagaaaaain,fr,2026-04-21_10h52.40.007,GNG,2024.2.4,iPhone,58.82352941,https://run.pavlovia.org/LNS/hub/,GNG,,,,,,,,,75.542,75.976,,,,,,54,Ice cream cone,6,,,,0,,,,74.824,75.277,1,0.385,tap,0,0,0,1,0,45,0,45,0,1,,,,,,,
,,,Marie-testing-againandagainandagaaaaain,fr,2026-04-21_10h52.40.007,GNG,2024.2.4,iPhone,58.82352941,https://run.pavlovia.org/LNS/hub/,GNG,,,,,,,,,77.83,78.397,,,,,,47,Gummy candies,5,,,,0,,,,75.976,77.579,0,,none,0,0,0,0,1,46,0,46,0,1,,,,,,,
,,,Marie-testing-againandagainandagaaaaain,fr,2026-04-21_10h52.40.007,GNG,2024.2.4,iPhone,58.82352941,https://run.pavlovia.org/LNS/hub/,GNG,,,,,,,,,79.065,79.616,,,,,,49,Chocolate cookies,5,,,,0,,,,78.397,78.806,1,0.343,tap,0,0,0,1,0,47,0,47,0,1,,,,,,,
,,,Marie-testing-againandagainandagaaaaain,fr,2026-04-21_10h52.40.007,GNG,2024.2.4,iPhone,58.82352941,https://run.pavlovia.org/LNS/hub/,GNG,,,,,,,,,80.434,80.751,,,,,,30,Onion rings,3,,,,1,,,,79.616,80.176,1,0.493,tap,1,1,0,0,0,48,0,48,0,1,,,,,,,
,,,Marie-testing-againandagainandagaaaaain,fr,2026-04-21_10h52.40.007,GNG,2024.2.4,iPhone,58.82352941,https://run.pavlovia.org/LNS/hub/,GNG,,,,,,,,,81.569,82.103,,,,,,9,Healthy cracker (Darvida),1,,,,1,,,,80.751,81.31,1,0.491,tap,1,1,0,0,0,49,0,49,0,1,,,,,,,
,,,Marie-testing-againandagainandagaaaaain,fr,2026-04-21_10h52.40.007,GNG,2024.2.4,iPhone,58.82352941,https://run.pavlovia.org/LNS/hub/,GNG,,,,,,,,,83.072,83.389,,,,,,15,Flute,2,,,,1,,,,82.103,82.815,1,0.643,tap,1,1,0,0,0,50,0,50,0,1,,,,,,,
,,,Marie-testing-againandagainandagaaaaain,fr,2026-04-21_10h52.40.007,GNG,2024.2.4,iPhone,58.82352941,https://run.pavlovia.org/LNS/hub/,GNG,,,,,,,,,84.14,84.557,,,,,,25,French fries,3,,,,1,,,,83.39,83.88,1,0.425,tap,1,1,0,0,0,51,0,51,0,1,,,,,,,
,,,Marie-testing-againandagainandagaaaaain,fr,2026-04-21_10h52.40.007,GNG,2024.2.4,iPhone,58.82352941,https://run.pavlovia.org/LNS/hub/,GNG,,,,,,,,,85.341,85.842,,,,,,35,Foccacia,4,,,,1,,,,84.558,85.084,1,0.459,tap,1,1,0,0,0,52,0,52,0,1,,,,,,,
,,,Marie-testing-againandagainandagaaaaain,fr,2026-04-21_10h52.40.007,GNG,2024.2.4,iPhone,58.82352941,https://run.pavlovia.org/LNS/hub/,GNG,,,,,,,,,86.594,86.894,,,,,,22,Pizza (vegetarian),3,,,,1,,,,85.843,86.331,1,0.421,tap,1,1,0,0,0,53,0,53,0,1,,,,,,,
,,,Marie-testing-againandagainandagaaaaain,fr,2026-04-21_10h52.40.007,GNG,2024.2.4,iPhone,58.82352941,https://run.pavlovia.org/LNS/hub/,GNG,,,,,,,,,88.747,89.181,,,,,,25,French fries,3,,,,1,,,,86.895,88.496,0,,none,1,0,1,0,0,54,0,54,0,1,,,,,,,
,,,Marie-testing-againandagainandagaaaaain,fr,2026-04-21_10h52.40.007,GNG,2024.2.4,iPhone,58.82352941,https://run.pavlovia.org/LNS/hub/,GNG,,,,,,,,,89.932,90.617,,,,,,9,Healthy cracker (Darvida),1,,,,1,,,,89.181,89.669,1,0.422,tap,1,1,0,0,0,55,0,55,0,1,,,,,,,
,,,Marie-testing-againandagainandagaaaaain,fr,2026-04-21_10h52.40.007,GNG,2024.2.4,iPhone,58.82352941,https://run.pavlovia.org/LNS/hub/,GNG,,,,,,,,,91.335,91.885,,,,,,28,Burger (vegetarian),3,,,,1,,,,90.617,91.074,1,0.391,tap,1,1,0,0,0,56,0,56,0,1,,,,,,,
,,,Marie-testing-againandagainandagaaaaain,fr,2026-04-21_10h52.40.007,GNG,2024.2.4,iPhone,58.82352941,https://run.pavlovia.org/LNS/hub/,GNG,,,,,,,,,92.57,93.003,,,,,,11,Crisps,2,,,,1,,,,91.885,92.307,1,0.355,tap,1,1,0,0,0,57,0,57,0,1,,,,,,,
,,,Marie-testing-againandagainandagaaaaain,fr,2026-04-21_10h52.40.007,GNG,2024.2.4,iPhone,58.82352941,https://run.pavlovia.org/LNS/hub/,GNG,,,,,,,,,93.688,94.106,,,,,,22,Pizza (vegetarian),3,,,,1,,,,93.004,93.424,1,0.353,tap,1,1,0,0,0,58,0,58,0,1,,,,,,,
,,,Marie-testing-againandagainandagaaaaain,fr,2026-04-21_10h52.40.007,GNG,2024.2.4,iPhone,58.82352941,https://run.pavlovia.org/LNS/hub/,GNG,,,,,,,,,94.874,95.457,,,,,,30,Onion rings,3,,,,1,,,,94.106,94.61,1,0.438,tap,1,1,0,0,0,59,0,59,0,1,,,,,,,
,,,Marie-testing-againandagainandagaaaaain,fr,2026-04-21_10h52.40.007,GNG,2024.2.4,iPhone,58.82352941,https://run.pavlovia.org/LNS/hub/,GNG,,,,,,,,,97.31,97.945,,,,,,59,Cheesecake,6,,,,0,,,,95.458,97.06,0,,none,0,0,0,0,1,60,0,60,0,1,,,,,,,
,,,Marie-testing-againandagainandagaaaaain,fr,2026-04-21_10h52.40.007,GNG,2024.2.4,iPhone,58.82352941,https://run.pavlovia.org/LNS/hub/,GNG,,,,,,,,,98.646,99.447,,,,,,25,French fries,3,,,,1,,,,97.945,98.382,1,0.37,tap,1,1,0,0,0,61,0,61,0,1,,,,,,,
,,,Marie-testing-againandagainandagaaaaain,fr,2026-04-21_10h52.40.007,GNG,2024.2.4,iPhone,58.82352941,https://run.pavlovia.org/LNS/hub/,GNG,,,,,,,,,101.3,102.017,,,,,,31,Croissant,4,,,,0,,,,99.447,101.049,0,,none,0,0,0,0,1,62,0,62,0,1,,,,,,,
,,,Marie-testing-againandagainandagaaaaain,fr,2026-04-21_10h52.40.007,GNG,2024.2.4,iPhone,58.82352941,https://run.pavlovia.org/LNS/hub/,GNG,,,,,,,,,103.87,104.504,,,,,,57,Fondant au chocolat,6,,,,0,,,,102.018,103.619,0,,none,0,0,0,0,1,63,0,63,0,1,,,,,,,
,,,Marie-testing-againandagainandagaaaaain,fr,2026-04-21_10h52.40.007,GNG,2024.2.4,iPhone,58.82352941,https://run.pavlovia.org/LNS/hub/,GNG,,,,,,,,,105.339,106.123,,,,,,12,Crisps,2,,,,1,,,,104.504,105.083,1,0.512,tap,1,1,0,0,0,64,0,64,0,1,,,,,,,
,,,Marie-testing-againandagainandagaaaaain,fr,2026-04-21_10h52.40.007,GNG,2024.2.4,iPhone,58.82352941,https://run.pavlovia.org/LNS/hub/,GNG,,,,,,,,,107.975,108.56,,,,,,48,Sour candies,5,,,,0,,,,106.124,107.725,0,,none,0,0,0,0,1,65,0,65,0,1,,,,,,,
,,,Marie-testing-againandagainandagaaaaain,fr,2026-04-21_10h52.40.007,GNG,2024.2.4,iPhone,58.82352941,https://run.pavlovia.org/LNS/hub/,GNG,,,,,,,,,109.295,109.946,,,,,,17,"Salted nuts (Cashew, peanuts, pistacchios)",2,,,,1,,,,108.56,109.03,1,0.403,tap,1,1,0,0,0,66,0,66,0,1,,,,,,,
,,,Marie-testing-againandagainandagaaaaain,fr,2026-04-21_10h52.40.007,GNG,2024.2.4,iPhone,58.82352941,https://run.pavlovia.org/LNS/hub/,GNG,,,,,,,,,111.799,112.266,,,,,,47,Gummy candies,5,,,,0,,,,109.946,111.548,0,,none,0,0,0,0,1,67,0,67,0,1,,,,,,,
,,,Marie-testing-againandagainandagaaaaain,fr,2026-04-21_10h52.40.007,GNG,2024.2.4,iPhone,58.82352941,https://run.pavlovia.org/LNS/hub/,GNG,,,,,,,,,113.053,113.535,,,,,,17,"Salted nuts (Cashew, peanuts, pistacchios)",2,,,,1,,,,112.266,112.793,1,0.459,tap,1,1,0,0,0,68,0,68,0,1,,,,,,,
,,,Marie-testing-againandagainandagaaaaain,fr,2026-04-21_10h52.40.007,GNG,2024.2.4,iPhone,58.82352941,https://run.pavlovia.org/LNS/hub/,GNG,,,,,,,,,114.286,114.686,,,,,,15,Flute,2,,,,1,,,,113.535,114.022,1,0.421,tap,1,1,0,0,0,69,0,69,0,1,,,,,,,
,,,Marie-testing-againandagainandagaaaaain,fr,2026-04-21_10h52.40.007,GNG,2024.2.4,iPhone,58.82352941,https://run.pavlovia.org/LNS/hub/,GNG,,,,,,,,,116.54,116.907,,,,,,57,Fondant au chocolat,6,,,,0,,,,114.687,116.289,0,,none,0,0,0,0,1,70,0,70,0,1,,,,,,,
,,,Marie-testing-againandagainandagaaaaain,fr,2026-04-21_10h52.40.007,GNG,2024.2.4,iPhone,58.82352941,https://run.pavlovia.org/LNS/hub/,GNG,,,,,,,,,118.76,119.545,,,,,,51,Tiramisu,6,,,,0,,,,116.907,118.509,0,,none,0,0,0,0,1,71,0,71,0,1,,,,,,,
,,,Marie-testing-againandagainandagaaaaain,fr,2026-04-21_10h52.40.007,GNG,2024.2.4,iPhone,58.82352941,https://run.pavlovia.org/LNS/hub/,GNG,,,,,,,,,120.279,120.646,,,,,,28,Burger (vegetarian),3,,,,1,,,,119.545,120.02,1,0.408,tap,1,1,0,0,0,72,0,72,0,1,,,,,,,
,,,Marie-testing-againandagainandagaaaaain,fr,2026-04-21_10h52.40.007,GNG,2024.2.4,iPhone,58.82352941,https://run.pavlovia.org/LNS/hub/,GNG,,,,,,,,,121.347,121.815,,,,,,35,Foccacia,4,,,,1,,,,120.647,121.084,1,0.388,tap,1,1,0,0,0,73,0,73,0,1,,,,,,,
,,,Marie-testing-againandagainandagaaaaain,fr,2026-04-21_10h52.40.007,GNG,2024.2.4,iPhone,58.82352941,https://run.pavlovia.org/LNS/hub/,GNG,,,,,,,,,122.6,123.05,,,,,,30,Onion rings,3,,,,1,,,,121.815,122.335,1,0.454,tap,1,1,0,0,0,74,0,74,0,1,,,,,,,
,,,Marie-testing-againandagainandagaaaaain,fr,2026-04-21_10h52.40.007,GNG,2024.2.4,iPhone,58.82352941,https://run.pavlovia.org/LNS/hub/,GNG,,,,,,,,,123.784,124.118,,,,,,22,Pizza (vegetarian),3,,,,1,,,,123.051,123.525,1,0.409,tap,1,1,0,0,0,75,0,75,0,1,,,,,,,
,,,Marie-testing-againandagainandagaaaaain,fr,2026-04-21_10h52.40.007,GNG,2024.2.4,iPhone,58.82352941,https://run.pavlovia.org/LNS/hub/,GNG,,,,,,,,,124.869,125.336,,,,,,22,Pizza (vegetarian),3,,,,1,,,,124.118,124.607,1,0.439,tap,1,1,0,0,0,76,0,76,0,1,,,,,,,
,,,Marie-testing-againandagainandagaaaaain,fr,2026-04-21_10h52.40.007,GNG,2024.2.4,iPhone,58.82352941,https://run.pavlovia.org/LNS/hub/,GNG,,,,,,,,,126.038,126.489,,,,,,5,Bell pepper,1,,,,1,,,,125.337,125.778,1,0.392,tap,1,1,0,0,0,77,0,77,0,1,,,,,,,
,,,Marie-testing-againandagainandagaaaaain,fr,2026-04-21_10h52.40.007,GNG,2024.2.4,iPhone,58.82352941,https://run.pavlovia.org/LNS/hub/,GNG,,,,,,,,,128.342,128.926,,,,,,54,Ice cream cone,6,,,,0,,,,126.489,128.092,0,,none,0,0,0,0,1,78,0,78,0,1,,,,,,,
,,,Marie-testing-againandagainandagaaaaain,fr,2026-04-21_10h52.40.007,GNG,2024.2.4,iPhone,58.82352941,https://run.pavlovia.org/LNS/hub/,GNG,,,,,,,,,129.661,129.962,,,,,,5,Bell pepper,1,,,,1,,,,128.927,129.402,1,0.425,tap,1,1,0,0,0,79,0,79,0,1,,,,,,,
,,,Marie-testing-againandagainandagaaaaain,fr,2026-04-21_10h52.40.007,GNG,2024.2.4,iPhone,58.82352941,https://run.pavlovia.org/LNS/hub/,GNG,,,,,,,,,,,,,,,,,,,,,,,,,,,,,,,,,,,,,,,,,0,0,0,0,1,,
,,,Marie-testing-againandagainandagaaaaain,fr,2026-04-21_10h52.40.007,GNG,2024.2.4,iPhone,58.82352941,https://run.pavlovia.org/LNS/hub/,GNG,,,,,136.753,137.041,,,137.842,138.327,,,,,,49,Chocolate cookies,5,,,,0,,129.963,136.753,137.061,137.578,1,0.466,tap,1,1,0,0,0,0,0,0,0,1,,,,,,,
,,,Marie-testing-againandagainandagaaaaain,fr,2026-04-21_10h52.40.007,GNG,2024.2.4,iPhone,58.82352941,https://run.pavlovia.org/LNS/hub/,GNG,,,,,,,,,139.012,139.595,,,,,,40,Tresse,4,,,,0,,,,138.327,138.745,1,0.352,tap,1,1,0,0,0,1,0,1,0,1,,,,,,,
,,,Marie-testing-againandagainandagaaaaain,fr,2026-04-21_10h52.40.007,GNG,2024.2.4,iPhone,58.82352941,https://run.pavlovia.org/LNS/hub/,GNG,,,,,,,,,140.347,141.133,,,,,,54,Ice cream cone,6,,,,0,,,,139.596,140.087,1,0.425,tap,1,1,0,0,0,2,0,2,0,1,,,,,,,
,,,Marie-testing-againandagainandagaaaaain,fr,2026-04-21_10h52.40.007,GNG,2024.2.4,iPhone,58.82352941,https://run.pavlovia.org/LNS/hub/,GNG,,,,,,,,,141.833,142.551,,,,,,9,Healthy cracker (Darvida),1,,,,1,,,,141.134,141.572,1,0.373,tap,0,0,0,1,0,3,0,3,0,1,,,,,,,
,,,Marie-testing-againandagainandagaaaaain,fr,2026-04-21_10h52.40.007,GNG,2024.2.4,iPhone,58.82352941,https://run.pavlovia.org/LNS/hub/,GNG,,,,,,,,,144.404,145.122,,,,,,17,"Salted nuts (Cashew, peanuts, pistacchios)",2,,,,1,,,,142.551,144.153,0,,none,0,0,0,0,1,4,0,4,0,1,,,,,,,
,,,Marie-testing-againandagainandagaaaaain,fr,2026-04-21_10h52.40.007,GNG,2024.2.4,iPhone,58.82352941,https://run.pavlovia.org/LNS/hub/,GNG,,,,,,,,,145.841,146.224,,,,,,31,Croissant,4,,,,0,,,,145.122,145.589,1,0.417,tap,1,1,0,0,0,5,0,5,0,1,,,,,,,
,,,Marie-testing-againandagainandagaaaaain,fr,2026-04-21_10h52.40.007,GNG,2024.2.4,iPhone,58.82352941,https://run.pavlovia.org/LNS/hub/,GNG,,,,,,,,,146.959,147.443,,,,,,10,"Dried fruits (apricot, mango)",1,,,,0,,,,146.224,146.695,1,0.404,tap,1,1,0,0,0,6,0,6,0,1,,,,,,,
,,,Marie-testing-againandagainandagaaaaain,fr,2026-04-21_10h52.40.007,GNG,2024.2.4,iPhone,58.82352941,https://run.pavlovia.org/LNS/hub/,GNG,,,,,,,,,148.194,148.561,,,,,,59,Cheesecake,6,,,,0,,,,147.443,147.936,1,0.426,tap,1,1,0,0,0,7,0,7,0,1,,,,,,,
,,,Marie-testing-againandagainandagaaaaain,fr,2026-04-21_10h52.40.007,GNG,2024.2.4,iPhone,58.82352941,https://run.pavlovia.org/LNS/hub/,GNG,,,,,,,,,149.312,150.063,,,,,,10,"Dried fruits (apricot, mango)",1,,,,0,,,,148.562,149.048,1,0.42,tap,1,1,0,0,0,8,0,8,0,1,,,,,,,
,,,Marie-testing-againandagainandagaaaaain,fr,2026-04-21_10h52.40.007,GNG,2024.2.4,iPhone,58.82352941,https://run.pavlovia.org/LNS/hub/,GNG,,,,,,,,,150.781,151.282,,,,,,51,Tiramisu,6,,,,0,,,,150.064,150.519,1,0.406,tap,1,1,0,0,0,9,0,9,0,1,,,,,,,
,,,Marie-testing-againandagainandagaaaaain,fr,2026-04-21_10h52.40.007,GNG,2024.2.4,iPhone,58.82352941,https://run.pavlovia.org/LNS/hub/,GNG,,,,,,,,,152.083,152.634,,,,,,37,Pain au chocolat,4,,,,0,,,,151.282,151.819,1,0.47,tap,1,1,0,0,0,10,0,10,0,1,,,,,,,
,,,Marie-testing-againandagainandagaaaaain,fr,2026-04-21_10h52.40.007,GNG,2024.2.4,iPhone,58.82352941,https://run.pavlovia.org/LNS/hub/,GNG,,,,,,,,,154.487,155.288,,,,,,17,"Salted nuts (Cashew, peanuts, pistacchios)",2,,,,1,,,,152.635,154.236,0,,none,0,0,0,0,1,11,0,11,0,1,,,,,,,
,,,Marie-testing-againandagainandagaaaaain,fr,2026-04-21_10h52.40.007,GNG,2024.2.4,iPhone,58.82352941,https://run.pavlovia.org/LNS/hub/,GNG,,,,,,,,,157.141,157.875,,,,,,11,Crisps,2,,,,1,,,,155.288,156.89,0,,none,0,0,0,0,1,12,0,12,0,1,,,,,,,
,,,Marie-testing-againandagainandagaaaaain,fr,2026-04-21_10h52.40.007,GNG,2024.2.4,iPhone,58.82352941,https://run.pavlovia.org/LNS/hub/,GNG,,,,,,,,,158.593,159.394,,,,,,48,Sour candies,5,,,,0,,,,157.876,158.335,1,0.393,tap,1,1,0,0,0,13,0,13,0,1,,,,,,,
,,,Marie-testing-againandagainandagaaaaain,fr,2026-04-21_10h52.40.007,GNG,2024.2.4,iPhone,58.82352941,https://run.pavlovia.org/LNS/hub/,GNG,,,,,,,,,160.095,160.746,,,,,,4,Plain yogurt,1,,,,0,,,,159.394,159.833,1,0.371,tap,1,1,0,0,0,14,0,14,0,1,,,,,,,
,,,Marie-testing-againandagainandagaaaaain,fr,2026-04-21_10h52.40.007,GNG,2024.2.4,iPhone,58.82352941,https://run.pavlovia.org/LNS/hub/,GNG,,,,,,,,,161.48,162.265,,,,,,31,Croissant,4,,,,0,,,,160.746,161.218,1,0.406,tap,1,1,0,0,0,15,0,15,0,1,,,,,,,
,,,Marie-testing-againandagainandagaaaaain,fr,2026-04-21_10h52.40.007,GNG,2024.2.4,iPhone,58.82352941,https://run.pavlovia.org/LNS/hub/,GNG,,,,,,,,,162.999,163.683,,,,,,54,Ice cream cone,6,,,,0,,,,162.265,162.739,1,0.407,tap,1,1,0,0,0,16,0,16,0,1,,,,,,,
,,,Marie-testing-againandagainandagaaaaain,fr,2026-04-21_10h52.40.007,GNG,2024.2.4,iPhone,58.82352941,https://run.pavlovia.org/LNS/hub/,GNG,,,,,,,,,164.418,165.002,,,,,,41,"Chocolate snacks (e.g. Kinder, Knoppers)",5,,,,0,,,,163.684,164.155,1,0.422,tap,1,1,0,0,0,17,0,17,0,1,,,,,,,
,,,Marie-testing-againandagainandagaaaaain,fr,2026-04-21_10h52.40.007,GNG,2024.2.4,iPhone,58.82352941,https://run.pavlovia.org/LNS/hub/,GNG,,,,,,,,,166.854,167.321,,,,,,22,Pizza (vegetarian),3,,,,1,,,,165.002,166.603,0,,none,0,0,0,0,1,18,0,18,0,1,,,,,,,
,,,Marie-testing-againandagainandagaaaaain,fr,2026-04-21_10h52.40.007,GNG,2024.2.4,iPhone,58.82352941,https://run.pavlovia.org/LNS/hub/,GNG,,,,,,,,,168.073,168.824,,,,,,57,Fondant au chocolat,6,,,,0,,,,167.322,167.809,1,0.421,tap,1,1,0,0,0,19,0,19,0,1,,,,,,,
,,,Marie-testing-againandagainandagaaaaain,fr,2026-04-21_10h52.40.007,GNG,2024.2.4,iPhone,58.82352941,https://run.pavlovia.org/LNS/hub/,GNG,,,,,,,,,169.558,169.992,,,,,,49,Chocolate cookies,5,,,,0,,,,168.824,169.294,1,0.404,tap,1,1,0,0,0,20,0,20,0,1,,,,,,,
,,,Marie-testing-againandagainandagaaaaain,fr,2026-04-21_10h52.40.007,GNG,2024.2.4,iPhone,58.82352941,https://run.pavlovia.org/LNS/hub/,GNG,,,,,,,,,171.845,172.629,,,,,,15,Flute,2,,,,1,,,,169.992,171.594,0,,none,0,0,0,0,1,21,0,21,0,1,,,,,,,
,,,Marie-testing-againandagainandagaaaaain,fr,2026-04-21_10h52.40.007,GNG,2024.2.4,iPhone,58.82352941,https://run.pavlovia.org/LNS/hub/,GNG,,,,,,,,,173.38,173.73,,,,,,47,Gummy candies,5,,,,0,,,,172.63,173.116,1,0.42,tap,1,1,0,0,0,22,0,22,0,1,,,,,,,
,,,Marie-testing-againandagainandagaaaaain,fr,2026-04-21_10h52.40.007,GNG,2024.2.4,iPhone,58.82352941,https://run.pavlovia.org/LNS/hub/,GNG,,,,,,,,,174.432,175.199,,,,,,47,Gummy candies,5,,,,0,,,,173.731,174.168,1,0.388,tap,1,1,0,0,0,23,0,23,0,1,,,,,,,
,,,Marie-testing-againandagainandagaaaaain,fr,2026-04-21_10h52.40.007,GNG,2024.2.4,iPhone,58.82352941,https://run.pavlovia.org/LNS/hub/,GNG,,,,,,,,,177.052,177.603,,,,,,30,Onion rings,3,,,,1,,,,175.2,176.801,0,,none,0,0,0,0,1,24,0,24,0,1,,,,,,,
,,,Marie-testing-againandagainandagaaaaain,fr,2026-04-21_10h52.40.007,GNG,2024.2.4,iPhone,58.82352941,https://run.pavlovia.org/LNS/hub/,GNG,,,,,,,,,178.387,179.088,,,,,,47,Gummy candies,5,,,,0,,,,177.603,178.124,1,0.454,tap,1,1,0,0,0,25,0,25,0,1,,,,,,,
,,,Marie-testing-againandagainandagaaaaain,fr,2026-04-21_10h52.40.007,GNG,2024.2.4,iPhone,58.82352941,https://run.pavlovia.org/LNS/hub/,GNG,,,,,,,,,179.806,180.123,,,,,,48,Sour candies,5,,,,0,,,,179.088,179.545,1,0.407,tap,1,1,0,0,0,26,0,26,0,1,,,,,,,
,,,Marie-testing-againandagainandagaaaaain,fr,2026-04-21_10h52.40.007,GNG,2024.2.4,iPhone,58.82352941,https://run.pavlovia.org/LNS/hub/,GNG,,,,,,,,,181.975,182.659,,,,,,22,Pizza (vegetarian),3,,,,1,,,,180.123,181.724,0,,none,0,0,0,0,1,27,0,27,0,1,,,,,,,
,,,Marie-testing-againandagainandagaaaaain,fr,2026-04-21_10h52.40.007,GNG,2024.2.4,iPhone,58.82352941,https://run.pavlovia.org/LNS/hub/,GNG,,,,,,,,,183.427,183.86,,,,,,31,Croissant,4,,,,0,,,,182.659,183.162,1,0.436,tap,1,1,0,0,0,28,0,28,0,1,,,,,,,
,,,Marie-testing-againandagainandagaaaaain,fr,2026-04-21_10h52.40.007,GNG,2024.2.4,iPhone,58.82352941,https://run.pavlovia.org/LNS/hub/,GNG,,,,,,,,,184.578,184.895,,,,,,57,Fondant au chocolat,6,,,,0,,,,183.861,184.315,1,0.389,tap,1,1,0,0,0,29,0,29,0,1,,,,,,,
,,,Marie-testing-againandagainandagaaaaain,fr,2026-04-21_10h52.40.007,GNG,2024.2.4,iPhone,58.82352941,https://run.pavlovia.org/LNS/hub/,GNG,,,,,,,,,185.629,186.28,,,,,,57,Fondant au chocolat,6,,,,0,,,,184.895,185.37,1,0.409,tap,1,1,0,0,0,30,0,30,0,1,,,,,,,
,,,Marie-testing-againandagainandagaaaaain,fr,2026-04-21_10h52.40.007,GNG,2024.2.4,iPhone,58.82352941,https://run.pavlovia.org/LNS/hub/,GNG,,,,,,,,,187.014,187.699,,,,,,54,Ice cream cone,6,,,,0,,,,186.28,186.75,1,0.403,tap,1,1,0,0,0,31,0,31,0,1,,,,,,,
,,,Marie-testing-againandagainandagaaaaain,fr,2026-04-21_10h52.40.007,GNG,2024.2.4,iPhone,58.82352941,https://run.pavlovia.org/LNS/hub/,GNG,,,,,,,,,188.399,188.7,,,,,,47,Gummy candies,5,,,,0,,,,187.699,188.136,1,0.371,tap,1,1,0,0,0,32,0,32,0,1,,,,,,,
,,,Marie-testing-againandagainandagaaaaain,fr,2026-04-21_10h52.40.007,GNG,2024.2.4,iPhone,58.82352941,https://run.pavlovia.org/LNS/hub/,GNG,,,,,,,,,189.467,190.218,,,,,,37,Pain au chocolat,4,,,,0,,,,188.7,189.21,1,0.444,tap,1,1,0,0,0,33,0,33,0,1,,,,,,,
,,,Marie-testing-againandagainandagaaaaain,fr,2026-04-21_10h52.40.007,GNG,2024.2.4,iPhone,58.82352941,https://run.pavlovia.org/LNS/hub/,GNG,,,,,,,,,190.936,191.653,,,,,,31,Croissant,4,,,,0,,,,190.219,190.678,1,0.41,tap,1,1,0,0,0,34,0,34,0,1,,,,,,,
,,,Marie-testing-againandagainandagaaaaain,fr,2026-04-21_10h52.40.007,GNG,2024.2.4,iPhone,58.82352941,https://run.pavlovia.org/LNS/hub/,GNG,,,,,,,,,193.505,194.29,,,,,,12,Crisps,2,,,,1,,,,191.654,193.255,0,,none,0,0,0,0,1,35,0,35,0,1,,,,,,,
,,,Marie-testing-againandagainandagaaaaain,fr,2026-04-21_10h52.40.007,GNG,2024.2.4,iPhone,58.82352941,https://run.pavlovia.org/LNS/hub/,GNG,,,,,,,,,195.024,195.758,,,,,,51,Tiramisu,6,,,,0,,,,194.29,194.76,1,0.403,tap,1,1,0,0,0,36,0,36,0,1,,,,,,,
,,,Marie-testing-againandagainandagaaaaain,fr,2026-04-21_10h52.40.007,GNG,2024.2.4,iPhone,58.82352941,https://run.pavlovia.org/LNS/hub/,GNG,,,,,,,,,196.476,196.893,,,,,,10,"Dried fruits (apricot, mango)",1,,,,0,,,,195.758,196.216,1,0.408,tap,1,1,0,0,0,37,0,37,0,1,,,,,,,
,,,Marie-testing-againandagainandagaaaaain,fr,2026-04-21_10h52.40.007,GNG,2024.2.4,iPhone,58.82352941,https://run.pavlovia.org/LNS/hub/,GNG,,,,,,,,,198.746,199.48,,,,,,25,French fries,3,,,,1,,,,196.893,198.495,0,,none,0,0,0,0,1,38,0,38,0,1,,,,,,,
,,,Marie-testing-againandagainandagaaaaain,fr,2026-04-21_10h52.40.007,GNG,2024.2.4,iPhone,58.82352941,https://run.pavlovia.org/LNS/hub/,GNG,,,,,,,,,200.198,200.731,,,,,,59,Cheesecake,6,,,,0,,,,199.481,199.942,1,0.395,tap,1,1,0,0,0,39,0,39,0,1,,,,,,,
,,,Marie-testing-againandagainandagaaaaain,fr,2026-04-21_10h52.40.007,GNG,2024.2.4,iPhone,58.82352941,https://run.pavlovia.org/LNS/hub/,GNG,,,,,,,,,202.584,202.984,,,,,,35,Foccacia,4,,,,1,,,,200.732,202.334,0,,none,0,0,0,0,1,40,0,40,0,1,,,,,,,
,,,Marie-testing-againandagainandagaaaaain,fr,2026-04-21_10h52.40.007,GNG,2024.2.4,iPhone,58.82352941,https://run.pavlovia.org/LNS/hub/,GNG,,,,,,,,,204.837,205.204,,,,,,5,Bell pepper,1,,,,1,,,,202.985,204.587,0,,none,0,0,0,0,1,41,0,41,0,1,,,,,,,
,,,Marie-testing-againandagainandagaaaaain,fr,2026-04-21_10h52.40.007,GNG,2024.2.4,iPhone,58.82352941,https://run.pavlovia.org/LNS/hub/,GNG,,,,,,,,,205.939,206.439,,,,,,49,Chocolate cookies,5,,,,0,,,,205.205,205.68,1,0.409,tap,1,1,0,0,0,42,0,42,0,1,,,,,,,
,,,Marie-testing-againandagainandagaaaaain,fr,2026-04-21_10h52.40.007,GNG,2024.2.4,iPhone,58.82352941,https://run.pavlovia.org/LNS/hub/,GNG,,,,,,,,,207.173,207.757,,,,,,4,Plain yogurt,1,,,,0,,,,206.439,206.908,1,0.419,tap,1,1,0,0,0,43,0,43,0,1,,,,,,,
,,,Marie-testing-againandagainandagaaaaain,fr,2026-04-21_10h52.40.007,GNG,2024.2.4,iPhone,58.82352941,https://run.pavlovia.org/LNS/hub/,GNG,,,,,,,,,208.492,208.809,,,,,,4,Plain yogurt,1,,,,0,,,,207.758,208.228,1,0.404,tap,1,1,0,0,0,44,0,44,0,1,,,,,,,
,,,Marie-testing-againandagainandagaaaaain,fr,2026-04-21_10h52.40.007,GNG,2024.2.4,iPhone,58.82352941,https://run.pavlovia.org/LNS/hub/,GNG,,,,,,,,,209.543,210.31,,,,,,51,Tiramisu,6,,,,0,,,,208.809,209.283,1,0.407,tap,1,1,0,0,0,45,0,45,0,1,,,,,,,
,,,Marie-testing-againandagainandagaaaaain,fr,2026-04-21_10h52.40.007,GNG,2024.2.4,iPhone,58.82352941,https://run.pavlovia.org/LNS/hub/,GNG,,,,,,,,,211.095,211.528,,,,,,48,Sour candies,5,,,,0,,,,210.311,210.832,1,0.455,tap,1,1,0,0,0,46,0,46,0,1,,,,,,,
,,,Marie-testing-againandagainandagaaaaain,fr,2026-04-21_10h52.40.007,GNG,2024.2.4,iPhone,58.82352941,https://run.pavlovia.org/LNS/hub/,GNG,,,,,,,,,212.28,212.78,,,,,,48,Sour candies,5,,,,0,,,,211.529,212.02,1,0.442,tap,1,1,0,0,0,47,0,47,0,1,,,,,,,
,,,Marie-testing-againandagainandagaaaaain,fr,2026-04-21_10h52.40.007,GNG,2024.2.4,iPhone,58.82352941,https://run.pavlovia.org/LNS/hub/,GNG,,,,,,,,,213.548,214.316,,,,,,59,Cheesecake,6,,,,0,,,,212.781,213.285,1,0.438,tap,1,1,0,0,0,48,0,48,0,1,,,,,,,
,,,Marie-testing-againandagainandagaaaaain,fr,2026-04-21_10h52.40.007,GNG,2024.2.4,iPhone,58.82352941,https://run.pavlovia.org/LNS/hub/,GNG,,,,,,,,,215.034,215.418,,,,,,37,Pain au chocolat,4,,,,0,,,,214.317,214.774,1,0.391,tap,1,1,0,0,0,49,0,49,0,1,,,,,,,
,,,Marie-testing-againandagainandagaaaaain,fr,2026-04-21_10h52.40.007,GNG,2024.2.4,iPhone,58.82352941,https://run.pavlovia.org/LNS/hub/,GNG,,,,,,,,,216.169,216.502,,,,,,47,Gummy candies,5,,,,0,,,,215.418,215.91,1,0.426,tap,1,1,0,0,0,50,0,50,0,1,,,,,,,
,,,Marie-testing-againandagainandagaaaaain,fr,2026-04-21_10h52.40.007,GNG,2024.2.4,iPhone,58.82352941,https://run.pavlovia.org/LNS/hub/,GNG,,,,,,,,,217.22,217.638,,,,,,59,Cheesecake,6,,,,0,,,,216.503,216.963,1,0.411,tap,1,1,0,0,0,51,0,51,0,1,,,,,,,
,,,Marie-testing-againandagainandagaaaaain,fr,2026-04-21_10h52.40.007,GNG,2024.2.4,iPhone,58.82352941,https://run.pavlovia.org/LNS/hub/,GNG,,,,,,,,,218.322,219.091,,,,,,48,Sour candies,5,,,,0,,,,217.638,218.069,1,0.365,tap,1,1,0,0,0,52,0,52,0,1,,,,,,,
,,,Marie-testing-againandagainandagaaaaain,fr,2026-04-21_10h52.40.007,GNG,2024.2.4,iPhone,58.82352941,https://run.pavlovia.org/LNS/hub/,GNG,,,,,,,,,219.808,220.508,,,,,,40,Tresse,4,,,,0,,,,219.092,219.543,1,0.387,tap,1,1,0,0,0,53,0,53,0,1,,,,,,,
,,,Marie-testing-againandagainandagaaaaain,fr,2026-04-21_10h52.40.007,GNG,2024.2.4,iPhone,58.82352941,https://run.pavlovia.org/LNS/hub/,GNG,,,,,,,,,221.176,221.543,,,,,,30,Onion rings,3,,,,1,,,,220.509,220.917,1,0.358,tap,0,0,0,1,0,54,0,54,0,1,,,,,,,
,,,Marie-testing-againandagainandagaaaaain,fr,2026-04-21_10h52.40.007,GNG,2024.2.4,iPhone,58.82352941,https://run.pavlovia.org/LNS/hub/,GNG,,,,,,,,,222.328,222.762,,,,,,59,Cheesecake,6,,,,0,,,,221.544,222.064,1,0.454,tap,1,1,0,0,0,55,0,55,0,1,,,,,,,
,,,Marie-testing-againandagainandagaaaaain,fr,2026-04-21_10h52.40.007,GNG,2024.2.4,iPhone,58.82352941,https://run.pavlovia.org/LNS/hub/,GNG,,,,,,,,,223.63,224.014,,,,,,41,"Chocolate snacks (e.g. Kinder, Knoppers)",5,,,,0,,,,222.762,223.371,1,0.542,tap,1,1,0,0,0,56,0,56,0,1,,,,,,,
,,,Marie-testing-againandagainandagaaaaain,fr,2026-04-21_10h52.40.007,GNG,2024.2.4,iPhone,58.82352941,https://run.pavlovia.org/LNS/hub/,GNG,,,,,,,,,224.699,225.116,,,,,,4,Plain yogurt,1,,,,0,,,,224.014,224.434,1,0.37,tap,1,1,0,0,0,57,0,57,0,1,,,,,,,
,,,Marie-testing-againandagainandagaaaaain,fr,2026-04-21_10h52.40.007,GNG,2024.2.4,iPhone,58.82352941,https://run.pavlovia.org/LNS/hub/,GNG,,,,,,,,,225.834,226.552,,,,,,40,Tresse,4,,,,0,,,,225.116,225.571,1,0.388,tap,1,1,0,0,0,58,0,58,0,1,,,,,,,
,,,Marie-testing-againandagainandagaaaaain,fr,2026-04-21_10h52.40.007,GNG,2024.2.4,iPhone,58.82352941,https://run.pavlovia.org/LNS/hub/,GNG,,,,,,,,,227.32,227.754,,,,,,37,Pain au chocolat,4,,,,0,,,,226.552,227.057,1,0.439,tap,1,1,0,0,0,59,0,59,0,1,,,,,,,
,,,Marie-testing-againandagainandagaaaaain,fr,2026-04-21_10h52.40.007,GNG,2024.2.4,iPhone,58.82352941,https://run.pavlovia.org/LNS/hub/,GNG,,,,,,,,,228.455,229.156,,,,,,51,Tiramisu,6,,,,0,,,,227.754,228.191,1,0.371,tap,1,1,0,0,0,60,0,60,0,1,,,,,,,
,,,Marie-testing-againandagainandagaaaaain,fr,2026-04-21_10h52.40.007,GNG,2024.2.4,iPhone,58.82352941,https://run.pavlovia.org/LNS/hub/,GNG,,,,,,,,,229.973,230.291,,,,,,57,Fondant au chocolat,6,,,,0,,,,229.156,229.715,1,0.493,tap,1,1,0,0,0,61,0,61,0,1,,,,,,,
,,,Marie-testing-againandagainandagaaaaain,fr,2026-04-21_10h52.40.007,GNG,2024.2.4,iPhone,58.82352941,https://run.pavlovia.org/LNS/hub/,GNG,,,,,,,,,231.059,231.443,,,,,,57,Fondant au chocolat,6,,,,0,,,,230.291,230.796,1,0.439,tap,1,1,0,0,0,62,0,62,0,1,,,,,,,
,,,Marie-testing-againandagainandagaaaaain,fr,2026-04-21_10h52.40.007,GNG,2024.2.4,iPhone,58.82352941,https://run.pavlovia.org/LNS/hub/,GNG,,,,,,,,,232.21,232.861,,,,,,31,Croissant,4,,,,0,,,,231.443,231.953,1,0.444,tap,1,1,0,0,0,63,0,63,0,1,,,,,,,
,,,Marie-testing-againandagainandagaaaaain,fr,2026-04-21_10h52.40.007,GNG,2024.2.4,iPhone,58.82352941,https://run.pavlovia.org/LNS/hub/,GNG,,,,,,,,,234.715,235.315,,,,,,35,Foccacia,4,,,,1,,,,232.862,234.464,0,,none,0,0,0,0,1,64,0,64,0,1,,,,,,,
,,,Marie-testing-againandagainandagaaaaain,fr,2026-04-21_10h52.40.007,GNG,2024.2.4,iPhone,58.82352941,https://run.pavlovia.org/LNS/hub/,GNG,,,,,,,,,236.233,236.985,,,,,,49,Chocolate cookies,5,,,,0,,,,235.316,235.971,1,0.605,tap,1,1,0,0,0,65,0,65,0,1,,,,,,,
,,,Marie-testing-againandagainandagaaaaain,fr,2026-04-21_10h52.40.007,GNG,2024.2.4,iPhone,58.82352941,https://run.pavlovia.org/LNS/hub/,GNG,,,,,,,,,237.736,238.337,,,,,,40,Tresse,4,,,,0,,,,236.985,237.477,1,0.441,tap,1,1,0,0,0,66,0,66,0,1,,,,,,,
,,,Marie-testing-againandagainandagaaaaain,fr,2026-04-21_10h52.40.007,GNG,2024.2.4,iPhone,58.82352941,https://run.pavlovia.org/LNS/hub/,GNG,,,,,,,,,239.121,239.772,,,,,,54,Ice cream cone,6,,,,0,,,,238.337,238.863,1,0.459,tap,1,1,0,0,0,67,0,67,0,1,,,,,,,
,,,Marie-testing-againandagainandagaaaaain,fr,2026-04-21_10h52.40.007,GNG,2024.2.4,iPhone,58.82352941,https://run.pavlovia.org/LNS/hub/,GNG,,,,,,,,,240.523,240.907,,,,,,54,Ice cream cone,6,,,,0,,,,239.773,240.265,1,0.443,tap,1,1,0,0,0,68,0,68,0,1,,,,,,,
,,,Marie-testing-againandagainandagaaaaain,fr,2026-04-21_10h52.40.007,GNG,2024.2.4,iPhone,58.82352941,https://run.pavlovia.org/LNS/hub/,GNG,,,,,,,,,241.792,242.409,,,,,,41,"Chocolate snacks (e.g. Kinder, Knoppers)",5,,,,0,,,,240.907,241.532,1,0.575,tap,1,1,0,0,0,69,0,69,0,1,,,,,,,
,,,Marie-testing-againandagainandagaaaaain,fr,2026-04-21_10h52.40.007,GNG,2024.2.4,iPhone,58.82352941,https://run.pavlovia.org/LNS/hub/,GNG,,,,,,,,,243.127,243.661,,,,,,51,Tiramisu,6,,,,0,,,,242.409,242.866,1,0.407,tap,1,1,0,0,0,70,0,70,0,1,,,,,,,
,,,Marie-testing-againandagainandagaaaaain,fr,2026-04-21_10h52.40.007,GNG,2024.2.4,iPhone,58.82352941,https://run.pavlovia.org/LNS/hub/,GNG,,,,,,,,,244.362,244.679,,,,,,41,"Chocolate snacks (e.g. Kinder, Knoppers)",5,,,,0,,,,243.662,244.098,1,0.37,tap,1,1,0,0,0,71,0,71,0,1,,,,,,,
,,,Marie-testing-againandagainandagaaaaain,fr,2026-04-21_10h52.40.007,GNG,2024.2.4,iPhone,58.82352941,https://run.pavlovia.org/LNS/hub/,GNG,,,,,,,,,245.481,245.998,,,,,,40,Tresse,4,,,,0,,,,244.68,245.223,1,0.476,tap,1,1,0,0,0,72,0,72,0,1,,,,,,,
,,,Marie-testing-againandagainandagaaaaain,fr,2026-04-21_10h52.40.007,GNG,2024.2.4,iPhone,58.82352941,https://run.pavlovia.org/LNS/hub/,GNG,,,,,,,,,246.782,247.5,,,,,,37,Pain au chocolat,4,,,,0,,,,245.998,246.523,1,0.458,tap,1,1,0,0,0,73,0,73,0,1,,,,,,,
,,,Marie-testing-againandagainandagaaaaain,fr,2026-04-21_10h52.40.007,GNG,2024.2.4,iPhone,58.82352941,https://run.pavlovia.org/LNS/hub/,GNG,,,,,,,,,248.218,248.952,,,,,,4,Plain yogurt,1,,,,0,,,,247.501,247.954,1,0.386,tap,1,1,0,0,0,74,0,74,0,1,,,,,,,
,,,Marie-testing-againandagainandagaaaaain,fr,2026-04-21_10h52.40.007,GNG,2024.2.4,iPhone,58.82352941,https://run.pavlovia.org/LNS/hub/,GNG,,,,,,,,,250.805,251.389,,,,,,28,Burger (vegetarian),3,,,,1,,,,248.952,250.554,0,,none,0,0,0,0,1,75,0,75,0,1,,,,,,,
,,,Marie-testing-againandagainandagaaaaain,fr,2026-04-21_10h52.40.007,GNG,2024.2.4,iPhone,58.82352941,https://run.pavlovia.org/LNS/hub/,GNG,,,,,,,,,253.242,253.976,,,,,,12,Crisps,2,,,,1,,,,251.389,252.991,0,,none,0,0,0,0,1,76,0,76,0,1,,,,,,,
,,,Marie-testing-againandagainandagaaaaain,fr,2026-04-21_10h52.40.007,GNG,2024.2.4,iPhone,58.82352941,https://run.pavlovia.org/LNS/hub/,GNG,,,,,,,,,254.827,255.178,,,,,,49,Chocolate cookies,5,,,,0,,,,253.976,254.566,1,0.523,tap,1,1,0,0,0,77,0,77,0,1,,,,,,,
,,,Marie-testing-againandagainandagaaaaain,fr,2026-04-21_10h52.40.007,GNG,2024.2.4,iPhone,58.82352941,https://run.pavlovia.org/LNS/hub/,GNG,,,,,,,,,255.912,256.396,,,,,,10,"Dried fruits (apricot, mango)",1,,,,0,,,,255.178,255.647,1,0.403,tap,1,1,0,0,0,78,0,78,0,1,,,,,,,
,,,Marie-testing-againandagainandagaaaaain,fr,2026-04-21_10h52.40.007,GNG,2024.2.4,iPhone,58.82352941,https://run.pavlovia.org/LNS/hub/,GNG,,,,,,,,,257.13,257.531,,,,,,10,"Dried fruits (apricot, mango)",1,,,,0,,,,256.397,256.867,1,0.421,tap,1,1,0,0,0,79,0,79,0,1,,,,,,,
,,,Marie-testing-againandagainandagaaaaain,fr,2026-04-21_10h52.40.007,GNG,2024.2.4,iPhone,58.82352941,https://run.pavlovia.org/LNS/hub/,GNG,,,,,,,,,,,,,,,,,,,,,,,,,,,,,,,,,,,,,,,,,1,0,1,0,1,,
,,,Marie-testing-againandagainandagaaaaain,fr,2026-04-21_10h52.40.007,GNG,2024.2.4,iPhone,58.82352941,https://run.pavlovia.org/LNS/hub/,GNG,,,,,258.622,258.917,,,260.052,260.836,,,,,,35,Foccacia,4,,,,1,,257.532,258.622,258.921,259.796,1,0.813,tap,1,1,0,0,0,0,0,0,0,1,,,,,,,
,,,Marie-testing-againandagainandagaaaaain,fr,2026-04-21_10h52.40.007,GNG,2024.2.4,iPhone,58.82352941,https://run.pavlovia.org/LNS/hub/,GNG,,,,,,,,,261.621,262.055,,,,,,15,Flute,2,,,,1,,,,260.837,261.358,1,0.472,tap,1,1,0,0,0,1,0,1,0,1,,,,,,,
,,,Marie-testing-againandagainandagaaaaain,fr,2026-04-21_10h52.40.007,GNG,2024.2.4,iPhone,58.82352941,https://run.pavlovia.org/LNS/hub/,GNG,,,,,,,,,262.789,263.273,,,,,,22,Pizza (vegetarian),3,,,,1,,,,262.055,262.528,1,0.407,tap,1,1,0,0,0,2,0,2,0,1,,,,,,,
,,,Marie-testing-againandagainandagaaaaain,fr,2026-04-21_10h52.40.007,GNG,2024.2.4,iPhone,58.82352941,https://run.pavlovia.org/LNS/hub/,GNG,,,,,,,,,264.025,264.625,,,,,,11,Crisps,2,,,,1,,,,263.274,263.76,1,0.437,tap,1,1,0,0,0,3,0,3,0,1,,,,,,,
,,,Marie-testing-againandagainandagaaaaain,fr,2026-04-21_10h52.40.007,GNG,2024.2.4,iPhone,58.82352941,https://run.pavlovia.org/LNS/hub/,GNG,,,,,,,,,265.344,266.011,,,,,,22,Pizza (vegetarian),3,,,,1,,,,264.626,265.08,1,0.405,tap,1,1,0,0,0,4,0,4,0,1,,,,,,,
,,,Marie-testing-againandagainandagaaaaain,fr,2026-04-21_10h52.40.007,GNG,2024.2.4,iPhone,58.82352941,https://run.pavlovia.org/LNS/hub/,GNG,,,,,,,,,266.796,267.431,,,,,,5,Bell pepper,1,,,,1,,,,266.012,266.534,1,0.473,tap,1,1,0,0,0,5,0,5,0,1,,,,,,,
,,,Marie-testing-againandagainandagaaaaain,fr,2026-04-21_10h52.40.007,GNG,2024.2.4,iPhone,58.82352941,https://run.pavlovia.org/LNS/hub/,GNG,,,,,,,,,268.198,268.532,,,,,,28,Burger (vegetarian),3,,,,1,,,,267.431,267.939,1,0.442,tap,1,1,0,0,0,6,0,6,0,1,,,,,,,
,,,Marie-testing-againandagainandagaaaaain,fr,2026-04-21_10h52.40.007,GNG,2024.2.4,iPhone,58.82352941,https://run.pavlovia.org/LNS/hub/,GNG,,,,,,,,,269.284,270.052,,,,,,17,"Salted nuts (Cashew, peanuts, pistacchios)",2,,,,1,,,,268.533,269.02,1,0.438,tap,1,1,0,0,0,7,0,7,0,1,,,,,,,
,,,Marie-testing-againandagainandagaaaaain,fr,2026-04-21_10h52.40.007,GNG,2024.2.4,iPhone,58.82352941,https://run.pavlovia.org/LNS/hub/,GNG,,,,,,,,,270.82,271.187,,,,,,12,Crisps,2,,,,1,,,,270.052,270.562,1,0.444,tap,1,1,0,0,0,8,0,8,0,1,,,,,,,
,,,Marie-testing-againandagainandagaaaaain,fr,2026-04-21_10h52.40.007,GNG,2024.2.4,iPhone,58.82352941,https://run.pavlovia.org/LNS/hub/,GNG,,,,,,,,,271.938,272.639,,,,,,12,Crisps,2,,,,1,,,,271.187,271.68,1,0.443,tap,1,1,0,0,0,9,0,9,0,1,,,,,,,
,,,Marie-testing-againandagainandagaaaaain,fr,2026-04-21_10h52.40.007,GNG,2024.2.4,iPhone,58.82352941,https://run.pavlovia.org/LNS/hub/,GNG,,,,,,,,,273.375,274.009,,,,,,17,"Salted nuts (Cashew, peanuts, pistacchios)",2,,,,1,,,,272.64,273.108,1,0.418,tap,1,1,0,0,0,10,0,10,0,1,,,,,,,
,,,Marie-testing-againandagainandagaaaaain,fr,2026-04-21_10h52.40.007,GNG,2024.2.4,iPhone,58.82352941,https://run.pavlovia.org/LNS/hub/,GNG,,,,,,,,,274.66,275.344,,,,,,15,Flute,2,,,,1,,,,274.009,274.397,1,0.338,tap,1,1,0,0,0,11,0,11,0,1,,,,,,,
,,,Marie-testing-againandagainandagaaaaain,fr,2026-04-21_10h52.40.007,GNG,2024.2.4,iPhone,58.82352941,https://run.pavlovia.org/LNS/hub/,GNG,,,,,,,,,276.013,276.714,,,,,,48,Sour candies,5,,,,0,,,,275.345,275.749,1,0.337,tap,0,0,0,1,0,12,0,12,0,1,,,,,,,
,,,Marie-testing-againandagainandagaaaaain,fr,2026-04-21_10h52.40.007,GNG,2024.2.4,iPhone,58.82352941,https://run.pavlovia.org/LNS/hub/,GNG,,,,,,,,,277.498,277.832,,,,,,28,Burger (vegetarian),3,,,,1,,,,276.714,277.234,1,0.453,tap,1,1,0,0,0,13,0,13,0,1,,,,,,,
,,,Marie-testing-againandagainandagaaaaain,fr,2026-04-21_10h52.40.007,GNG,2024.2.4,iPhone,58.82352941,https://run.pavlovia.org/LNS/hub/,GNG,,,,,,,,,278.567,278.917,,,,,,30,Onion rings,3,,,,1,,,,277.832,278.304,1,0.405,tap,1,1,0,0,0,14,0,14,0,1,,,,,,,
,,,Marie-testing-againandagainandagaaaaain,fr,2026-04-21_10h52.40.007,GNG,2024.2.4,iPhone,58.82352941,https://run.pavlovia.org/LNS/hub/,GNG,,,,,,,,,279.786,280.503,,,,,,11,Crisps,2,,,,1,,,,278.918,279.522,1,0.555,tap,1,1,0,0,0,15,0,15,0,1,,,,,,,
,,,Marie-testing-againandagainandagaaaaain,fr,2026-04-21_10h52.40.007,GNG,2024.2.4,iPhone,58.82352941,https://run.pavlovia.org/LNS/hub/,GNG,,,,,,,,,281.255,281.722,,,,,,9,Healthy cracker (Darvida),1,,,,1,,,,280.504,280.991,1,0.421,tap,1,1,0,0,0,16,0,16,0,1,,,,,,,
,,,Marie-testing-againandagainandagaaaaain,fr,2026-04-21_10h52.40.007,GNG,2024.2.4,iPhone,58.82352941,https://run.pavlovia.org/LNS/hub/,GNG,,,,,,,,,282.624,283.291,,,,,,5,Bell pepper,1,,,,1,,,,281.723,282.361,1,0.589,tap,1,1,0,0,0,17,0,17,0,1,,,,,,,
,,,Marie-testing-againandagainandagaaaaain,fr,2026-04-21_10h52.40.007,GNG,2024.2.4,iPhone,58.82352941,https://run.pavlovia.org/LNS/hub/,GNG,,,,,,,,,284.026,284.761,,,,,,17,"Salted nuts (Cashew, peanuts, pistacchios)",2,,,,1,,,,283.292,283.767,1,0.426,tap,1,1,0,0,0,18,0,18,0,1,,,,,,,
,,,Marie-testing-againandagainandagaaaaain,fr,2026-04-21_10h52.40.007,GNG,2024.2.4,iPhone,58.82352941,https://run.pavlovia.org/LNS/hub/,GNG,,,,,,,,,285.579,285.962,,,,,,17,"Salted nuts (Cashew, peanuts, pistacchios)",2,,,,1,,,,284.761,285.327,1,0.514,tap,1,1,0,0,0,19,0,19,0,1,,,,,,,
,,,Marie-testing-againandagainandagaaaaain,fr,2026-04-21_10h52.40.007,GNG,2024.2.4,iPhone,58.82352941,https://run.pavlovia.org/LNS/hub/,GNG,,,,,,,,,287.816,288.216,,,,,,4,Plain yogurt,1,,,,0,,,,285.963,287.565,0,,none,0,0,0,0,1,20,0,20,0,1,,,,,,,
,,,Marie-testing-againandagainandagaaaaain,fr,2026-04-21_10h52.40.007,GNG,2024.2.4,iPhone,58.82352941,https://run.pavlovia.org/LNS/hub/,GNG,,,,,,,,,288.951,289.485,,,,,,22,Pizza (vegetarian),3,,,,1,,,,288.217,288.692,1,0.425,tap,1,1,0,0,0,21,0,21,0,1,,,,,,,
,,,Marie-testing-againandagainandagaaaaain,fr,2026-04-21_10h52.40.007,GNG,2024.2.4,iPhone,58.82352941,https://run.pavlovia.org/LNS/hub/,GNG,,,,,,,,,291.338,291.706,,,,,,31,Croissant,4,,,,0,,,,289.486,291.088,0,,none,0,0,0,0,1,22,0,22,0,1,,,,,,,
,,,Marie-testing-againandagainandagaaaaain,fr,2026-04-21_10h52.40.007,GNG,2024.2.4,iPhone,58.82352941,https://run.pavlovia.org/LNS/hub/,GNG,,,,,,,,,293.558,294.076,,,,,,51,Tiramisu,6,,,,0,,,,291.706,293.307,0,,none,0,0,0,0,1,23,0,23,0,1,,,,,,,
,,,Marie-testing-againandagainandagaaaaain,fr,2026-04-21_10h52.40.007,GNG,2024.2.4,iPhone,58.82352941,https://run.pavlovia.org/LNS/hub/,GNG,,,,,,,,,294.777,295.561,,,,,,15,Flute,2,,,,1,,,,294.076,294.518,1,0.375,tap,1,1,0,0,0,24,0,24,0,1,,,,,,,
,,,Marie-testing-againandagainandagaaaaain,fr,2026-04-21_10h52.40.007,GNG,2024.2.4,iPhone,58.82352941,https://run.pavlovia.org/LNS/hub/,GNG,,,,,,,,,296.279,296.913,,,,,,15,Flute,2,,,,1,,,,295.562,296.015,1,0.404,tap,1,1,0,0,0,25,0,25,0,1,,,,,,,
,,,Marie-testing-againandagainandagaaaaain,fr,2026-04-21_10h52.40.007,GNG,2024.2.4,iPhone,58.82352941,https://run.pavlovia.org/LNS/hub/,GNG,,,,,,,,,297.665,298.048,,,,,,25,French fries,3,,,,1,,,,296.913,297.406,1,0.443,tap,1,1,0,0,0,26,0,26,0,1,,,,,,,
,,,Marie-testing-againandagainandagaaaaain,fr,2026-04-21_10h52.40.007,GNG,2024.2.4,iPhone,58.82352941,https://run.pavlovia.org/LNS/hub/,GNG,,,,,,,,,298.766,299.183,,,,,,15,Flute,2,,,,1,,,,298.048,298.507,1,0.408,tap,1,1,0,0,0,27,0,27,0,1,,,,,,,
,,,Marie-testing-againandagainandagaaaaain,fr,2026-04-21_10h52.40.007,GNG,2024.2.4,iPhone,58.82352941,https://run.pavlovia.org/LNS/hub/,GNG,,,,,,,,,300.069,300.719,,,,,,5,Bell pepper,1,,,,1,,,,299.184,299.804,1,0.554,tap,1,1,0,0,0,28,0,28,0,1,,,,,,,
,,,Marie-testing-againandagainandagaaaaain,fr,2026-04-21_10h52.40.007,GNG,2024.2.4,iPhone,58.82352941,https://run.pavlovia.org/LNS/hub/,GNG,,,,,,,,,301.438,301.755,,,,,,11,Crisps,2,,,,1,,,,300.72,301.179,1,0.393,tap,1,1,0,0,0,29,0,29,0,1,,,,,,,
,,,Marie-testing-againandagainandagaaaaain,fr,2026-04-21_10h52.40.007,GNG,2024.2.4,iPhone,58.82352941,https://run.pavlovia.org/LNS/hub/,GNG,,,,,,,,,303.608,304.376,,,,,,10,"Dried fruits (apricot, mango)",1,,,,0,,,,301.755,303.357,0,,none,0,0,0,0,1,30,0,30,0,1,,,,,,,
,,,Marie-testing-againandagainandagaaaaain,fr,2026-04-21_10h52.40.007,GNG,2024.2.4,iPhone,58.82352941,https://run.pavlovia.org/LNS/hub/,GNG,,,,,,,,,305.11,305.461,,,,,,9,Healthy cracker (Darvida),1,,,,1,,,,304.376,304.846,1,0.403,tap,1,1,0,0,0,31,0,31,0,1,,,,,,,
,,,Marie-testing-againandagainandagaaaaain,fr,2026-04-21_10h52.40.007,GNG,2024.2.4,iPhone,58.82352941,https://run.pavlovia.org/LNS/hub/,GNG,,,,,,,,,306.178,306.729,,,,,,9,Healthy cracker (Darvida),1,,,,1,,,,305.461,305.915,1,0.388,tap,1,1,0,0,0,32,0,32,0,1,,,,,,,
,,,Marie-testing-againandagainandagaaaaain,fr,2026-04-21_10h52.40.007,GNG,2024.2.4,iPhone,58.82352941,https://run.pavlovia.org/LNS/hub/,GNG,,,,,,,,,308.582,309.2,,,,,,57,Fondant au chocolat,6,,,,0,,,,306.73,308.332,0,,none,0,0,0,0,1,33,0,33,0,1,,,,,,,
,,,Marie-testing-againandagainandagaaaaain,fr,2026-04-21_10h52.40.007,GNG,2024.2.4,iPhone,58.82352941,https://run.pavlovia.org/LNS/hub/,GNG,,,,,,,,,309.918,310.636,,,,,,30,Onion rings,3,,,,1,,,,309.2,309.658,1,0.391,tap,1,1,0,0,0,34,0,34,0,1,,,,,,,
,,,Marie-testing-againandagainandagaaaaain,fr,2026-04-21_10h52.40.007,GNG,2024.2.4,iPhone,58.82352941,https://run.pavlovia.org/LNS/hub/,GNG,,,,,,,,,311.337,311.938,,,,,,22,Pizza (vegetarian),3,,,,1,,,,310.636,311.074,1,0.388,tap,1,1,0,0,0,35,0,35,0,1,,,,,,,
,,,Marie-testing-againandagainandagaaaaain,fr,2026-04-21_10h52.40.007,GNG,2024.2.4,iPhone,58.82352941,https://run.pavlovia.org/LNS/hub/,GNG,,,,,,,,,312.656,313.123,,,,,,9,Healthy cracker (Darvida),1,,,,1,,,,311.939,312.391,1,0.386,tap,1,1,0,0,0,36,0,36,0,1,,,,,,,
,,,Marie-testing-againandagainandagaaaaain,fr,2026-04-21_10h52.40.007,GNG,2024.2.4,iPhone,58.82352941,https://run.pavlovia.org/LNS/hub/,GNG,,,,,,,,,313.841,314.425,,,,,,12,Crisps,2,,,,1,,,,313.124,313.578,1,0.405,tap,1,1,0,0,0,37,0,37,0,1,,,,,,,
,,,Marie-testing-againandagainandagaaaaain,fr,2026-04-21_10h52.40.007,GNG,2024.2.4,iPhone,58.82352941,https://run.pavlovia.org/LNS/hub/,GNG,,,,,,,,,315.16,315.894,,,,,,5,Bell pepper,1,,,,1,,,,314.426,314.9,1,0.425,tap,1,1,0,0,0,38,0,38,0,1,,,,,,,
,,,Marie-testing-againandagainandagaaaaain,fr,2026-04-21_10h52.40.007,GNG,2024.2.4,iPhone,58.82352941,https://run.pavlovia.org/LNS/hub/,GNG,,,,,,,,,316.578,316.945,,,,,,17,"Salted nuts (Cashew, peanuts, pistacchios)",2,,,,1,,,,315.894,316.314,1,0.37,tap,1,1,0,0,0,39,0,39,0,1,,,,,,,
,,,Marie-testing-againandagainandagaaaaain,fr,2026-04-21_10h52.40.007,GNG,2024.2.4,iPhone,58.82352941,https://run.pavlovia.org/LNS/hub/,GNG,,,,,,,,,318.799,319.182,,,,,,41,"Chocolate snacks (e.g. Kinder, Knoppers)",5,,,,0,,,,316.946,318.548,0,,none,0,0,0,0,1,40,0,40,0,1,,,,,,,
,,,Marie-testing-againandagainandagaaaaain,fr,2026-04-21_10h52.40.007,GNG,2024.2.4,iPhone,58.82352941,https://run.pavlovia.org/LNS/hub/,GNG,,,,,,,,,319.951,320.451,,,,,,35,Foccacia,4,,,,1,,,,319.183,319.69,1,0.458,tap,1,1,0,0,0,41,0,41,0,1,,,,,,,
,,,Marie-testing-againandagainandagaaaaain,fr,2026-04-21_10h52.40.007,GNG,2024.2.4,iPhone,58.82352941,https://run.pavlovia.org/LNS/hub/,GNG,,,,,,,,,321.152,321.502,,,,,,11,Crisps,2,,,,1,,,,320.451,320.894,1,0.376,tap,1,1,0,0,0,42,0,42,0,1,,,,,,,
,,,Marie-testing-againandagainandagaaaaain,fr,2026-04-21_10h52.40.007,GNG,2024.2.4,iPhone,58.82352941,https://run.pavlovia.org/LNS/hub/,GNG,,,,,,,,,322.17,322.854,,,,,,30,Onion rings,3,,,,1,,,,321.503,321.907,1,0.355,tap,1,1,0,0,0,43,0,43,0,1,,,,,,,
,,,Marie-testing-againandagainandagaaaaain,fr,2026-04-21_10h52.40.007,GNG,2024.2.4,iPhone,58.82352941,https://run.pavlovia.org/LNS/hub/,GNG,,,,,,,,,323.622,324.072,,,,,,22,Pizza (vegetarian),3,,,,1,,,,322.854,323.364,1,0.46,tap,1,1,0,0,0,44,0,44,0,1,,,,,,,
,,,Marie-testing-againandagainandagaaaaain,fr,2026-04-21_10h52.40.007,GNG,2024.2.4,iPhone,58.82352941,https://run.pavlovia.org/LNS/hub/,GNG,,,,,,,,,325.925,326.676,,,,,,40,Tresse,4,,,,0,,,,324.073,325.674,0,,none,0,0,0,0,1,45,0,45,0,1,,,,,,,
,,,Marie-testing-againandagainandagaaaaain,fr,2026-04-21_10h52.40.007,GNG,2024.2.4,iPhone,58.82352941,https://run.pavlovia.org/LNS/hub/,GNG,,,,,,,,,327.41,327.861,,,,,,12,Crisps,2,,,,1,,,,326.676,327.146,1,0.403,tap,1,1,0,0,0,46,0,46,0,1,,,,,,,
,,,Marie-testing-againandagainandagaaaaain,fr,2026-04-21_10h52.40.007,GNG,2024.2.4,iPhone,58.82352941,https://run.pavlovia.org/LNS/hub/,GNG,,,,,,,,,328.545,329.146,,,,,,25,French fries,3,,,,1,,,,327.861,328.287,1,0.359,tap,1,1,0,0,0,47,0,47,0,1,,,,,,,
,,,Marie-testing-againandagainandagaaaaain,fr,2026-04-21_10h52.40.007,GNG,2024.2.4,iPhone,58.82352941,https://run.pavlovia.org/LNS/hub/,GNG,,,,,,,,,329.88,330.465,,,,,,35,Foccacia,4,,,,1,,,,329.146,329.621,1,0.409,tap,1,1,0,0,0,48,0,48,0,1,,,,,,,
,,,Marie-testing-againandagainandagaaaaain,fr,2026-04-21_10h52.40.007,GNG,2024.2.4,iPhone,58.82352941,https://run.pavlovia.org/LNS/hub/,GNG,,,,,,,,,331.132,331.533,,,,,,15,Flute,2,,,,1,,,,330.465,330.87,1,0.339,tap,1,1,0,0,0,49,0,49,0,1,,,,,,,
,,,Marie-testing-againandagainandagaaaaain,fr,2026-04-21_10h52.40.007,GNG,2024.2.4,iPhone,58.82352941,https://run.pavlovia.org/LNS/hub/,GNG,,,,,,,,,333.386,334.17,,,,,,41,"Chocolate snacks (e.g. Kinder, Knoppers)",5,,,,0,,,,331.533,333.135,0,,none,0,0,0,0,1,50,0,50,0,1,,,,,,,
,,,Marie-testing-againandagainandagaaaaain,fr,2026-04-21_10h52.40.007,GNG,2024.2.4,iPhone,58.82352941,https://run.pavlovia.org/LNS/hub/,GNG,,,,,,,,,334.871,335.372,,,,,,30,Onion rings,3,,,,1,,,,334.171,334.607,1,0.387,tap,1,1,0,0,0,51,0,51,0,1,,,,,,,
,,,Marie-testing-againandagainandagaaaaain,fr,2026-04-21_10h52.40.007,GNG,2024.2.4,iPhone,58.82352941,https://run.pavlovia.org/LNS/hub/,GNG,,,,,,,,,336.09,336.808,,,,,,12,Crisps,2,,,,1,,,,335.372,335.828,1,0.39,tap,1,1,0,0,0,52,0,52,0,1,,,,,,,
,,,Marie-testing-againandagainandagaaaaain,fr,2026-04-21_10h52.40.007,GNG,2024.2.4,iPhone,58.82352941,https://run.pavlovia.org/LNS/hub/,GNG,,,,,,,,,338.66,339.045,,,,,,47,Gummy candies,5,,,,0,,,,336.808,338.41,0,,none,0,0,0,0,1,53,0,53,0,1,,,,,,,
,,,Marie-testing-againandagainandagaaaaain,fr,2026-04-21_10h52.40.007,GNG,2024.2.4,iPhone,58.82352941,https://run.pavlovia.org/LNS/hub/,GNG,,,,,,,,,339.762,340.113,,,,,,35,Foccacia,4,,,,1,,,,339.045,339.502,1,0.391,tap,1,1,0,0,0,54,0,54,0,1,,,,,,,
,,,Marie-testing-againandagainandagaaaaain,fr,2026-04-21_10h52.40.007,GNG,2024.2.4,iPhone,58.82352941,https://run.pavlovia.org/LNS/hub/,GNG,,,,,,,,,340.814,341.532,,,,,,17,"Salted nuts (Cashew, peanuts, pistacchios)",2,,,,1,,,,340.113,340.55,1,0.37,tap,1,1,0,0,0,55,0,55,0,1,,,,,,,
,,,Marie-testing-againandagainandagaaaaain,fr,2026-04-21_10h52.40.007,GNG,2024.2.4,iPhone,58.82352941,https://run.pavlovia.org/LNS/hub/,GNG,,,,,,,,,343.385,343.769,,,,,,49,Chocolate cookies,5,,,,0,,,,341.532,343.134,0,,none,0,0,0,0,1,56,0,56,0,1,,,,,,,
,,,Marie-testing-againandagainandagaaaaain,fr,2026-04-21_10h52.40.007,GNG,2024.2.4,iPhone,58.82352941,https://run.pavlovia.org/LNS/hub/,GNG,,,,,,,,,344.486,344.97,,,,,,30,Onion rings,3,,,,1,,,,343.769,344.227,1,0.392,tap,1,1,0,0,0,57,0,57,0,1,,,,,,,
,,,Marie-testing-againandagainandagaaaaain,fr,2026-04-21_10h52.40.007,GNG,2024.2.4,iPhone,58.82352941,https://run.pavlovia.org/LNS/hub/,GNG,,,,,,,,,345.721,346.289,,,,,,11,Crisps,2,,,,1,,,,344.97,345.469,1,0.449,tap,1,1,0,0,0,58,0,58,0,1,,,,,,,
,,,Marie-testing-againandagainandagaaaaain,fr,2026-04-21_10h52.40.007,GNG,2024.2.4,iPhone,58.82352941,https://run.pavlovia.org/LNS/hub/,GNG,,,,,,,,,346.956,347.657,,,,,,28,Burger (vegetarian),3,,,,1,,,,346.289,346.697,1,0.342,tap,1,1,0,0,0,59,0,59,0,1,,,,,,,
,,,Marie-testing-againandagainandagaaaaain,fr,2026-04-21_10h52.40.007,GNG,2024.2.4,iPhone,58.82352941,https://run.pavlovia.org/LNS/hub/,GNG,,,,,,,,,348.326,348.742,,,,,,28,Burger (vegetarian),3,,,,1,,,,347.658,348.066,1,0.342,tap,1,1,0,0,0,60,0,60,0,1,,,,,,,
,,,Marie-testing-againandagainandagaaaaain,fr,2026-04-21_10h52.40.007,GNG,2024.2.4,iPhone,58.82352941,https://run.pavlovia.org/LNS/hub/,GNG,,,,,,,,,349.393,350.162,,,,,,12,Crisps,2,,,,1,,,,348.743,349.135,1,0.343,tap,1,1,0,0,0,61,0,61,0,1,,,,,,,
,,,Marie-testing-againandagainandagaaaaain,fr,2026-04-21_10h52.40.007,GNG,2024.2.4,iPhone,58.82352941,https://run.pavlovia.org/LNS/hub/,GNG,,,,,,,,,352.014,352.698,,,,,,37,Pain au chocolat,4,,,,0,,,,350.162,351.763,0,,none,0,0,0,0,1,62,0,62,0,1,,,,,,,
,,,Marie-testing-againandagainandagaaaaain,fr,2026-04-21_10h52.40.007,GNG,2024.2.4,iPhone,58.82352941,https://run.pavlovia.org/LNS/hub/,GNG,,,,,,,,,353.466,353.766,,,,,,5,Bell pepper,1,,,,1,,,,352.699,353.203,1,0.438,tap,1,1,0,0,0,63,0,63,0,1,,,,,,,
,,,Marie-testing-againandagainandagaaaaain,fr,2026-04-21_10h52.40.007,GNG,2024.2.4,iPhone,58.82352941,https://run.pavlovia.org/LNS/hub/,GNG,,,,,,,,,354.418,354.801,,,,,,25,French fries,3,,,,1,,,,353.767,354.158,1,0.342,tap,1,1,0,0,0,64,0,64,0,1,,,,,,,
,,,Marie-testing-againandagainandagaaaaain,fr,2026-04-21_10h52.40.007,GNG,2024.2.4,iPhone,58.82352941,https://run.pavlovia.org/LNS/hub/,GNG,,,,,,,,,355.486,355.937,,,,,,25,French fries,3,,,,1,,,,354.802,355.222,1,0.354,tap,1,1,0,0,0,65,0,65,0,1,,,,,,,
,,,Marie-testing-againandagainandagaaaaain,fr,2026-04-21_10h52.40.007,GNG,2024.2.4,iPhone,58.82352941,https://run.pavlovia.org/LNS/hub/,GNG,,,,,,,,,356.688,357.022,,,,,,9,Healthy cracker (Darvida),1,,,,1,,,,355.937,356.427,1,0.424,tap,1,1,0,0,0,66,0,66,0,1,,,,,,,
,,,Marie-testing-againandagainandagaaaaain,fr,2026-04-21_10h52.40.007,GNG,2024.2.4,iPhone,58.82352941,https://run.pavlovia.org/LNS/hub/,GNG,,,,,,,,,357.789,358.139,,,,,,28,Burger (vegetarian),3,,,,1,,,,357.022,357.53,1,0.442,tap,1,1,0,0,0,67,0,67,0,1,,,,,,,
,,,Marie-testing-againandagainandagaaaaain,fr,2026-04-21_10h52.40.007,GNG,2024.2.4,iPhone,58.82352941,https://run.pavlovia.org/LNS/hub/,GNG,,,,,,,,,358.84,359.558,,,,,,25,French fries,3,,,,1,,,,358.14,358.578,1,0.389,tap,1,1,0,0,0,68,0,68,0,1,,,,,,,
,,,Marie-testing-againandagainandagaaaaain,fr,2026-04-21_10h52.40.007,GNG,2024.2.4,iPhone,58.82352941,https://run.pavlovia.org/LNS/hub/,GNG,,,,,,,,,361.41,361.794,,,,,,59,Cheesecake,6,,,,0,,,,359.558,361.16,0,,none,0,0,0,0,1,69,0,69,0,1,,,,,,,
,,,Marie-testing-againandagainandagaaaaain,fr,2026-04-21_10h52.40.007,GNG,2024.2.4,iPhone,58.82352941,https://run.pavlovia.org/LNS/hub/,GNG,,,,,,,,,362.579,363.329,,,,,,35,Foccacia,4,,,,1,,,,361.794,362.315,1,0.47,tap,1,1,0,0,0,70,0,70,0,1,,,,,,,
,,,Marie-testing-againandagainandagaaaaain,fr,2026-04-21_10h52.40.007,GNG,2024.2.4,iPhone,58.82352941,https://run.pavlovia.org/LNS/hub/,GNG,,,,,,,,,364.131,364.447,,,,,,9,Healthy cracker (Darvida),1,,,,1,,,,363.33,363.864,1,0.485,tap,1,1,0,0,0,71,0,71,0,1,,,,,,,
,,,Marie-testing-againandagainandagaaaaain,fr,2026-04-21_10h52.40.007,GNG,2024.2.4,iPhone,58.82352941,https://run.pavlovia.org/LNS/hub/,GNG,,,,,,,,,366.3,366.834,,,,,,48,Sour candies,5,,,,0,,,,364.448,366.049,0,,none,0,0,0,0,1,72,0,72,0,1,,,,,,,
,,,Marie-testing-againandagainandagaaaaain,fr,2026-04-21_10h52.40.007,GNG,2024.2.4,iPhone,58.82352941,https://run.pavlovia.org/LNS/hub/,GNG,,,,,,,,,368.687,369.02,,,,,,54,Ice cream cone,6,,,,0,,,,366.834,368.436,0,,none,0,0,0,0,1,73,0,73,0,1,,,,,,,
,,,Marie-testing-againandagainandagaaaaain,fr,2026-04-21_10h52.40.007,GNG,2024.2.4,iPhone,58.82352941,https://run.pavlovia.org/LNS/hub/,GNG,,,,,,,,,369.755,370.289,,,,,,35,Foccacia,4,,,,1,,,,369.034,369.491,1,0.42,tap,1,1,0,0,0,74,0,74,0,1,,,,,,,
,,,Marie-testing-againandagainandagaaaaain,fr,2026-04-21_10h52.40.007,GNG,2024.2.4,iPhone,58.82352941,https://run.pavlovia.org/LNS/hub/,GNG,,,,,,,,,372.141,372.809,,,,,,54,Ice cream cone,6,,,,0,,,,370.289,371.891,0,,none,0,0,0,0,1,75,0,75,0,1,,,,,,,
,,,Marie-testing-againandagainandagaaaaain,fr,2026-04-21_10h52.40.007,GNG,2024.2.4,iPhone,58.82352941,https://run.pavlovia.org/LNS/hub/,GNG,,,,,,,,,373.627,374.311,,,,,,22,Pizza (vegetarian),3,,,,1,,,,372.809,373.366,1,0.49,tap,1,1,0,0,0,76,0,76,0,1,,,,,,,
,,,Marie-testing-againandagainandagaaaaain,fr,2026-04-21_10h52.40.007,GNG,2024.2.4,iPhone,58.82352941,https://run.pavlovia.org/LNS/hub/,GNG,,,,,,,,,375.029,375.58,,,,,,28,Burger (vegetarian),3,,,,1,,,,374.311,374.77,1,0.393,tap,1,1,0,0,0,77,0,77,0,1,,,,,,,
,,,Marie-testing-againandagainandagaaaaain,fr,2026-04-21_10h52.40.007,GNG,2024.2.4,iPhone,58.82352941,https://run.pavlovia.org/LNS/hub/,GNG,,,,,,,,,376.298,376.898,,,,,,25,French fries,3,,,,1,,,,375.58,376.036,1,0.405,tap,1,1,0,0,0,78,0,78,0,1,,,,,,,
,,,Marie-testing-againandagainandagaaaaain,fr,2026-04-21_10h52.40.007,GNG,2024.2.4,iPhone,58.82352941,https://run.pavlovia.org/LNS/hub/,GNG,,,,,,,,,377.616,378.3,,,,,,5,Bell pepper,1,,,,1,,,,376.899,377.354,1,0.406,tap,1,1,0,0,0,79,0,79,0,1,,,,,,,
,,,Marie-testing-againandagainandagaaaaain,fr,2026-04-21_10h52.40.007,GNG,2024.2.4,iPhone,58.82352941,https://run.pavlovia.org/LNS/hub/,GNG,,,,,,,,,,,,,,,,,,,,,,,,,,,,,,,,,,,,,,,,,2,0,2,0,1,,
,,,Marie-testing-againandagainandagaaaaain,fr,2026-04-21_10h52.40.007,GNG,2024.2.4,iPhone,58.82352941,https://run.pavlovia.org/LNS/hub/,GNG,,,,,379.238,379.536,,,380.387,380.771,,,,,,48,Sour candies,5,,,,0,,378.301,379.238,379.539,380.124,1,0.522,tap,1,1,0,0,0,0,0,0,0,1,,,,,,,
,,,Marie-testing-againandagainandagaaaaain,fr,2026-04-21_10h52.40.007,GNG,2024.2.4,iPhone,58.82352941,https://run.pavlovia.org/LNS/hub/,GNG,,,,,,,,,381.472,382.223,,,,,,54,Ice cream cone,6,,,,0,,,,380.772,381.213,1,0.392,tap,1,1,0,0,0,1,0,1,0,1,,,,,,,
,,,Marie-testing-againandagainandagaaaaain,fr,2026-04-21_10h52.40.007,GNG,2024.2.4,iPhone,58.82352941,https://run.pavlovia.org/LNS/hub/,GNG,,,,,,,,,382.958,383.575,,,,,,57,Fondant au chocolat,6,,,,0,,,,382.224,382.693,1,0.42,tap,1,1,0,0,0,2,0,2,0,1,,,,,,,
,,,Marie-testing-againandagainandagaaaaain,fr,2026-04-21_10h52.40.007,GNG,2024.2.4,iPhone,58.82352941,https://run.pavlovia.org/LNS/hub/,GNG,,,,,,,,,384.294,384.645,,,,,,31,Croissant,4,,,,0,,,,383.576,384.027,1,0.385,tap,1,1,0,0,0,3,0,3,0,1,,,,,,,
,,,Marie-testing-againandagainandagaaaaain,fr,2026-04-21_10h52.40.007,GNG,2024.2.4,iPhone,58.82352941,https://run.pavlovia.org/LNS/hub/,GNG,,,,,,,,,385.363,386.147,,,,,,40,Tresse,4,,,,0,,,,384.645,385.103,1,0.392,tap,1,1,0,0,0,4,0,4,0,1,,,,,,,
,,,Marie-testing-againandagainandagaaaaain,fr,2026-04-21_10h52.40.007,GNG,2024.2.4,iPhone,58.82352941,https://run.pavlovia.org/LNS/hub/,GNG,,,,,,,,,386.865,387.216,,,,,,37,Pain au chocolat,4,,,,0,,,,386.147,386.606,1,0.393,tap,1,1,0,0,0,5,0,5,0,1,,,,,,,
,,,Marie-testing-againandagainandagaaaaain,fr,2026-04-21_10h52.40.007,GNG,2024.2.4,iPhone,58.82352941,https://run.pavlovia.org/LNS/hub/,GNG,,,,,,,,,387.967,388.434,,,,,,51,Tiramisu,6,,,,0,,,,387.216,387.702,1,0.42,tap,1,1,0,0,0,6,0,6,0,1,,,,,,,
,,,Marie-testing-againandagainandagaaaaain,fr,2026-04-21_10h52.40.007,GNG,2024.2.4,iPhone,58.82352941,https://run.pavlovia.org/LNS/hub/,GNG,,,,,,,,,389.102,389.587,,,,,,28,Burger (vegetarian),3,,,,1,,,,388.435,388.838,1,0.353,tap,0,0,0,1,0,7,0,7,0,1,,,,,,,
,,,Marie-testing-againandagainandagaaaaain,fr,2026-04-21_10h52.40.007,GNG,2024.2.4,iPhone,58.82352941,https://run.pavlovia.org/LNS/hub/,GNG,,,,,,,,,391.44,391.89,,,,,,15,Flute,2,,,,1,,,,389.587,391.189,0,,none,0,0,0,0,1,8,0,8,0,1,,,,,,,
,,,Marie-testing-againandagainandagaaaaain,fr,2026-04-21_10h52.40.007,GNG,2024.2.4,iPhone,58.82352941,https://run.pavlovia.org/LNS/hub/,GNG,,,,,,,,,393.744,394.262,,,,,,25,French fries,3,,,,1,,,,391.891,393.493,0,,none,0,0,0,0,1,9,0,9,0,1,,,,,,,
,,,Marie-testing-againandagainandagaaaaain,fr,2026-04-21_10h52.40.007,GNG,2024.2.4,iPhone,58.82352941,https://run.pavlovia.org/LNS/hub/,GNG,,,,,,,,,394.963,395.614,,,,,,48,Sour candies,5,,,,0,,,,394.262,394.699,1,0.371,tap,1,1,0,0,0,10,0,10,0,1,,,,,,,
,,,Marie-testing-againandagainandagaaaaain,fr,2026-04-21_10h52.40.007,GNG,2024.2.4,iPhone,58.82352941,https://run.pavlovia.org/LNS/hub/,GNG,,,,,,,,,397.467,397.851,,,,,,35,Foccacia,4,,,,1,,,,395.614,397.216,0,,none,0,0,0,0,1,11,0,11,0,1,,,,,,,
,,,Marie-testing-againandagainandagaaaaain,fr,2026-04-21_10h52.40.007,GNG,2024.2.4,iPhone,58.82352941,https://run.pavlovia.org/LNS/hub/,GNG,,,,,,,,,398.652,399.07,,,,,,41,"Chocolate snacks (e.g. Kinder, Knoppers)",5,,,,0,,,,397.851,398.394,1,0.493,tap,1,1,0,0,0,12,0,12,0,1,,,,,,,
,,,Marie-testing-againandagainandagaaaaain,fr,2026-04-21_10h52.40.007,GNG,2024.2.4,iPhone,58.82352941,https://run.pavlovia.org/LNS/hub/,GNG,,,,,,,,,399.971,400.589,,,,,,5,Bell pepper,1,,,,1,,,,399.07,399.713,1,0.577,tap,0,0,0,1,0,13,0,13,0,1,,,,,,,
,,,Marie-testing-againandagainandagaaaaain,fr,2026-04-21_10h52.40.007,GNG,2024.2.4,iPhone,58.82352941,https://run.pavlovia.org/LNS/hub/,GNG,,,,,,,,,401.39,402.058,,,,,,59,Cheesecake,6,,,,0,,,,400.59,401.131,1,0.475,tap,1,1,0,0,0,14,0,14,0,1,,,,,,,
,,,Marie-testing-againandagainandagaaaaain,fr,2026-04-21_10h52.40.007,GNG,2024.2.4,iPhone,58.82352941,https://run.pavlovia.org/LNS/hub/,GNG,,,,,,,,,403.912,404.68,,,,,,12,Crisps,2,,,,1,,,,402.059,403.661,0,,none,0,0,0,0,1,15,0,15,0,1,,,,,,,
,,,Marie-testing-againandagainandagaaaaain,fr,2026-04-21_10h52.40.007,GNG,2024.2.4,iPhone,58.82352941,https://run.pavlovia.org/LNS/hub/,GNG,,,,,,,,,405.448,405.882,,,,,,47,Gummy candies,5,,,,0,,,,404.68,405.183,1,0.437,tap,1,1,0,0,0,16,0,16,0,1,,,,,,,
,,,Marie-testing-againandagainandagaaaaain,fr,2026-04-21_10h52.40.007,GNG,2024.2.4,iPhone,58.82352941,https://run.pavlovia.org/LNS/hub/,GNG,,,,,,,,,407.735,408.269,,,,,,35,Foccacia,4,,,,1,,,,405.882,407.485,0,,none,0,0,0,0,1,17,0,17,0,1,,,,,,,
,,,Marie-testing-againandagainandagaaaaain,fr,2026-04-21_10h52.40.007,GNG,2024.2.4,iPhone,58.82352941,https://run.pavlovia.org/LNS/hub/,GNG,,,,,,,,,409.054,409.672,,,,,,48,Sour candies,5,,,,0,,,,408.27,408.792,1,0.456,tap,1,1,0,0,0,18,0,18,0,1,,,,,,,
,,,Marie-testing-againandagainandagaaaaain,fr,2026-04-21_10h52.40.007,GNG,2024.2.4,iPhone,58.82352941,https://run.pavlovia.org/LNS/hub/,GNG,,,,,,,,,410.48,411.242,,,,,,51,Tiramisu,6,,,,0,,,,409.672,410.216,1,0.477,tap,1,1,0,0,0,19,0,19,0,1,,,,,,,
,,,Marie-testing-againandagainandagaaaaain,fr,2026-04-21_10h52.40.007,GNG,2024.2.4,iPhone,58.82352941,https://run.pavlovia.org/LNS/hub/,GNG,,,,,,,,,411.976,412.644,,,,,,40,Tresse,4,,,,0,,,,411.242,411.716,1,0.408,tap,1,1,0,0,0,20,0,20,0,1,,,,,,,
,,,Marie-testing-againandagainandagaaaaain,fr,2026-04-21_10h52.40.007,GNG,2024.2.4,iPhone,58.82352941,https://run.pavlovia.org/LNS/hub/,GNG,,,,,,,,,414.497,415.215,,,,,,11,Crisps,2,,,,1,,,,412.644,414.246,0,,none,0,0,0,0,1,21,0,21,0,1,,,,,,,
,,,Marie-testing-againandagainandagaaaaain,fr,2026-04-21_10h52.40.007,GNG,2024.2.4,iPhone,58.82352941,https://run.pavlovia.org/LNS/hub/,GNG,,,,,,,,,415.95,416.568,,,,,,31,Croissant,4,,,,0,,,,415.216,415.687,1,0.422,tap,1,1,0,0,0,22,0,22,0,1,,,,,,,
,,,Marie-testing-againandagainandagaaaaain,fr,2026-04-21_10h52.40.007,GNG,2024.2.4,iPhone,58.82352941,https://run.pavlovia.org/LNS/hub/,GNG,,,,,,,,,417.302,417.786,,,,,,51,Tiramisu,6,,,,0,,,,416.568,417.037,1,0.403,tap,1,1,0,0,0,23,0,23,0,1,,,,,,,
,,,Marie-testing-againandagainandagaaaaain,fr,2026-04-21_10h52.40.007,GNG,2024.2.4,iPhone,58.82352941,https://run.pavlovia.org/LNS/hub/,GNG,,,,,,,,,418.471,418.972,,,,,,4,Plain yogurt,1,,,,0,,,,417.787,418.208,1,0.372,tap,1,1,0,0,0,24,0,24,0,1,,,,,,,
,,,Marie-testing-againandagainandagaaaaain,fr,2026-04-21_10h52.40.007,GNG,2024.2.4,iPhone,58.82352941,https://run.pavlovia.org/LNS/hub/,GNG,,,,,,,,,419.757,420.541,,,,,,37,Pain au chocolat,4,,,,0,,,,418.973,419.491,1,0.453,tap,1,1,0,0,0,25,0,25,0,1,,,,,,,
,,,Marie-testing-againandagainandagaaaaain,fr,2026-04-21_10h52.40.007,GNG,2024.2.4,iPhone,58.82352941,https://run.pavlovia.org/LNS/hub/,GNG,,,,,,,,,421.275,422.01,,,,,,51,Tiramisu,6,,,,0,,,,420.541,421.013,1,0.406,tap,1,1,0,0,0,26,0,26,0,1,,,,,,,
,,,Marie-testing-againandagainandagaaaaain,fr,2026-04-21_10h52.40.007,GNG,2024.2.4,iPhone,58.82352941,https://run.pavlovia.org/LNS/hub/,GNG,,,,,,,,,423.863,424.647,,,,,,30,Onion rings,3,,,,1,,,,422.01,423.612,0,,none,0,0,0,0,1,27,0,27,0,1,,,,,,,
,,,Marie-testing-againandagainandagaaaaain,fr,2026-04-21_10h52.40.007,GNG,2024.2.4,iPhone,58.82352941,https://run.pavlovia.org/LNS/hub/,GNG,,,,,,,,,425.417,425.966,,,,,,48,Sour candies,5,,,,0,,,,424.648,425.152,1,0.437,tap,1,1,0,0,0,28,0,28,0,1,,,,,,,
,,,Marie-testing-againandagainandagaaaaain,fr,2026-04-21_10h52.40.007,GNG,2024.2.4,iPhone,58.82352941,https://run.pavlovia.org/LNS/hub/,GNG,,,,,,,,,426.701,427.352,,,,,,41,"Chocolate snacks (e.g. Kinder, Knoppers)",5,,,,0,,,,425.967,426.439,1,0.422,tap,1,1,0,0,0,29,0,29,0,1,,,,,,,
,,,Marie-testing-againandagainandagaaaaain,fr,2026-04-21_10h52.40.007,GNG,2024.2.4,iPhone,58.82352941,https://run.pavlovia.org/LNS/hub/,GNG,,,,,,,,,428.054,428.438,,,,,,10,"Dried fruits (apricot, mango)",1,,,,0,,,,427.353,427.794,1,0.392,tap,1,1,0,0,0,30,0,30,0,1,,,,,,,
,,,Marie-testing-againandagainandagaaaaain,fr,2026-04-21_10h52.40.007,GNG,2024.2.4,iPhone,58.82352941,https://run.pavlovia.org/LNS/hub/,GNG,,,,,,,,,429.189,429.707,,,,,,37,Pain au chocolat,4,,,,0,,,,428.439,428.931,1,0.426,tap,1,1,0,0,0,31,0,31,0,1,,,,,,,
,,,Marie-testing-againandagainandagaaaaain,fr,2026-04-21_10h52.40.007,GNG,2024.2.4,iPhone,58.82352941,https://run.pavlovia.org/LNS/hub/,GNG,,,,,,,,,431.56,432.211,,,,,,17,"Salted nuts (Cashew, peanuts, pistacchios)",2,,,,1,,,,429.707,431.309,0,,none,0,0,0,0,1,32,0,32,0,1,,,,,,,
,,,Marie-testing-againandagainandagaaaaain,fr,2026-04-21_10h52.40.007,GNG,2024.2.4,iPhone,58.82352941,https://run.pavlovia.org/LNS/hub/,GNG,,,,,,,,,432.98,433.497,,,,,,54,Ice cream cone,6,,,,0,,,,432.212,432.72,1,0.458,tap,1,1,0,0,0,33,0,33,0,1,,,,,,,
,,,Marie-testing-againandagainandagaaaaain,fr,2026-04-21_10h52.40.007,GNG,2024.2.4,iPhone,58.82352941,https://run.pavlovia.org/LNS/hub/,GNG,,,,,,,,,434.215,434.632,,,,,,47,Gummy candies,5,,,,0,,,,433.497,433.955,1,0.392,tap,1,1,0,0,0,34,0,34,0,1,,,,,,,
,,,Marie-testing-againandagainandagaaaaain,fr,2026-04-21_10h52.40.007,GNG,2024.2.4,iPhone,58.82352941,https://run.pavlovia.org/LNS/hub/,GNG,,,,,,,,,435.4,435.951,,,,,,40,Tresse,4,,,,0,,,,434.633,435.141,1,0.459,tap,1,1,0,0,0,35,0,35,0,1,,,,,,,
,,,Marie-testing-againandagainandagaaaaain,fr,2026-04-21_10h52.40.007,GNG,2024.2.4,iPhone,58.82352941,https://run.pavlovia.org/LNS/hub/,GNG,,,,,,,,,436.637,437.154,,,,,,57,Fondant au chocolat,6,,,,0,,,,435.952,436.377,1,0.376,tap,1,1,0,0,0,36,0,36,0,1,,,,,,,
,,,Marie-testing-againandagainandagaaaaain,fr,2026-04-21_10h52.40.007,GNG,2024.2.4,iPhone,58.82352941,https://run.pavlovia.org/LNS/hub/,GNG,,,,,,,,,437.905,438.339,,,,,,48,Sour candies,5,,,,0,,,,437.154,437.643,1,0.423,tap,1,1,0,0,0,37,0,37,0,1,,,,,,,
,,,Marie-testing-againandagainandagaaaaain,fr,2026-04-21_10h52.40.007,GNG,2024.2.4,iPhone,58.82352941,https://run.pavlovia.org/LNS/hub/,GNG,,,,,,,,,439.09,439.391,,,,,,40,Tresse,4,,,,0,,,,438.339,438.833,1,0.428,tap,1,1,0,0,0,38,0,38,0,1,,,,,,,
,,,Marie-testing-againandagainandagaaaaain,fr,2026-04-21_10h52.40.007,GNG,2024.2.4,iPhone,58.82352941,https://run.pavlovia.org/LNS/hub/,GNG,,,,,,,,,440.142,440.559,,,,,,10,"Dried fruits (apricot, mango)",1,,,,0,,,,439.391,439.879,1,0.422,tap,1,1,0,0,0,39,0,39,0,1,,,,,,,
,,,Marie-testing-againandagainandagaaaaain,fr,2026-04-21_10h52.40.007,GNG,2024.2.4,iPhone,58.82352941,https://run.pavlovia.org/LNS/hub/,GNG,,,,,,,,,442.429,442.83,,,,,,30,Onion rings,3,,,,1,,,,440.56,442.166,0,,none,0,0,0,0,1,40,0,40,0,1,,,,,,,
,,,Marie-testing-againandagainandagaaaaain,fr,2026-04-21_10h52.40.007,GNG,2024.2.4,iPhone,58.82352941,https://run.pavlovia.org/LNS/hub/,GNG,,,,,,,,,443.615,443.932,,,,,,49,Chocolate cookies,5,,,,0,,,,442.83,443.356,1,0.476,tap,1,1,0,0,0,41,0,41,0,1,,,,,,,
,,,Marie-testing-againandagainandagaaaaain,fr,2026-04-21_10h52.40.007,GNG,2024.2.4,iPhone,58.82352941,https://run.pavlovia.org/LNS/hub/,GNG,,,,,,,,,444.634,445.101,,,,,,49,Chocolate cookies,5,,,,0,,,,443.933,444.371,1,0.389,tap,1,1,0,0,0,42,0,42,0,1,,,,,,,
,,,Marie-testing-againandagainandagaaaaain,fr,2026-04-21_10h52.40.007,GNG,2024.2.4,iPhone,58.82352941,https://run.pavlovia.org/LNS/hub/,GNG,,,,,,,,,445.986,446.754,,,,,,59,Cheesecake,6,,,,0,,,,445.101,445.725,1,0.558,tap,1,1,0,0,0,43,0,43,0,1,,,,,,,
,,,Marie-testing-againandagainandagaaaaain,fr,2026-04-21_10h52.40.007,GNG,2024.2.4,iPhone,58.82352941,https://run.pavlovia.org/LNS/hub/,GNG,,,,,,,,,448.607,449.075,,,,,,12,Crisps,2,,,,1,,,,446.754,448.356,0,,none,0,0,0,0,1,44,0,44,0,1,,,,,,,
,,,Marie-testing-againandagainandagaaaaain,fr,2026-04-21_10h52.40.007,GNG,2024.2.4,iPhone,58.82352941,https://run.pavlovia.org/LNS/hub/,GNG,,,,,,,,,449.826,450.561,,,,,,31,Croissant,4,,,,0,,,,449.075,449.562,1,0.42,tap,1,1,0,0,0,45,0,45,0,1,,,,,,,
,,,Marie-testing-againandagainandagaaaaain,fr,2026-04-21_10h52.40.007,GNG,2024.2.4,iPhone,58.82352941,https://run.pavlovia.org/LNS/hub/,GNG,,,,,,,,,451.212,451.796,,,,,,4,Plain yogurt,1,,,,0,,,,450.561,450.946,1,0.335,tap,1,1,0,0,0,46,0,46,0,1,,,,,,,
,,,Marie-testing-againandagainandagaaaaain,fr,2026-04-21_10h52.40.007,GNG,2024.2.4,iPhone,58.82352941,https://run.pavlovia.org/LNS/hub/,GNG,,,,,,,,,452.514,453.316,,,,,,59,Cheesecake,6,,,,0,,,,451.796,452.251,1,0.388,tap,1,1,0,0,0,47,0,47,0,1,,,,,,,
,,,Marie-testing-againandagainandagaaaaain,fr,2026-04-21_10h52.40.007,GNG,2024.2.4,iPhone,58.82352941,https://run.pavlovia.org/LNS/hub/,GNG,,,,,,,,,453.983,454.35,,,,,,47,Gummy candies,5,,,,0,,,,453.316,453.719,1,0.337,tap,1,1,0,0,0,48,0,48,0,1,,,,,,,
,,,Marie-testing-againandagainandagaaaaain,fr,2026-04-21_10h52.40.007,GNG,2024.2.4,iPhone,58.82352941,https://run.pavlovia.org/LNS/hub/,GNG,,,,,,,,,455.119,455.619,,,,,,57,Fondant au chocolat,6,,,,0,,,,454.351,454.859,1,0.459,tap,1,1,0,0,0,49,0,49,0,1,,,,,,,
,,,Marie-testing-againandagainandagaaaaain,fr,2026-04-21_10h52.40.007,GNG,2024.2.4,iPhone,58.82352941,https://run.pavlovia.org/LNS/hub/,GNG,,,,,,,,,457.473,458.023,,,,,,22,Pizza (vegetarian),3,,,,1,,,,455.62,457.222,0,,none,0,0,0,0,1,50,0,50,0,1,,,,,,,
,,,Marie-testing-againandagainandagaaaaain,fr,2026-04-21_10h52.40.007,GNG,2024.2.4,iPhone,58.82352941,https://run.pavlovia.org/LNS/hub/,GNG,,,,,,,,,458.725,459.28,,,,,,47,Gummy candies,5,,,,0,,,,458.024,458.466,1,0.392,tap,1,1,0,0,0,51,0,51,0,1,,,,,,,
,,,Marie-testing-againandagainandagaaaaain,fr,2026-04-21_10h52.40.007,GNG,2024.2.4,iPhone,58.82352941,https://run.pavlovia.org/LNS/hub/,GNG,,,,,,,,,460.01,460.545,,,,,,31,Croissant,4,,,,0,,,,459.281,459.752,1,0.41,tap,1,1,0,0,0,52,0,52,0,1,,,,,,,
,,,Marie-testing-againandagainandagaaaaain,fr,2026-04-21_10h52.40.007,GNG,2024.2.4,iPhone,58.82352941,https://run.pavlovia.org/LNS/hub/,GNG,,,,,,,,,461.264,461.998,,,,,,10,"Dried fruits (apricot, mango)",1,,,,0,,,,460.545,461.004,1,0.393,tap,1,1,0,0,0,53,0,53,0,1,,,,,,,
,,,Marie-testing-againandagainandagaaaaain,fr,2026-04-21_10h52.40.007,GNG,2024.2.4,iPhone,58.82352941,https://run.pavlovia.org/LNS/hub/,GNG,,,,,,,,,462.749,463.551,,,,,,37,Pain au chocolat,4,,,,0,,,,461.999,462.486,1,0.422,tap,1,1,0,0,0,54,0,54,0,1,,,,,,,
,,,Marie-testing-againandagainandagaaaaain,fr,2026-04-21_10h52.40.007,GNG,2024.2.4,iPhone,58.82352941,https://run.pavlovia.org/LNS/hub/,GNG,,,,,,,,,464.285,465.074,,,,,,4,Plain yogurt,1,,,,0,,,,463.551,464.023,1,0.406,tap,1,1,0,0,0,55,0,55,0,1,,,,,,,
,,,Marie-testing-againandagainandagaaaaain,fr,2026-04-21_10h52.40.007,GNG,2024.2.4,iPhone,58.82352941,https://run.pavlovia.org/LNS/hub/,GNG,,,,,,,,,465.771,466.338,,,,,,31,Croissant,4,,,,0,,,,465.075,465.509,1,0.373,tap,1,1,0,0,0,56,0,56,0,1,,,,,,,
,,,Marie-testing-againandagainandagaaaaain,fr,2026-04-21_10h52.40.007,GNG,2024.2.4,iPhone,58.82352941,https://run.pavlovia.org/LNS/hub/,GNG,,,,,,,,,468.191,468.626,,,,,,9,Healthy cracker (Darvida),1,,,,1,,,,466.339,467.941,0,,none,0,0,0,0,1,57,0,57,0,1,,,,,,,
,,,Marie-testing-againandagainandagaaaaain,fr,2026-04-21_10h52.40.007,GNG,2024.2.4,iPhone,58.82352941,https://run.pavlovia.org/LNS/hub/,GNG,,,,,,,,,469.327,469.811,,,,,,57,Fondant au chocolat,6,,,,0,,,,468.626,469.063,1,0.371,tap,1,1,0,0,0,58,0,58,0,1,,,,,,,
,,,Marie-testing-againandagainandagaaaaain,fr,2026-04-21_10h52.40.007,GNG,2024.2.4,iPhone,58.82352941,https://run.pavlovia.org/LNS/hub/,GNG,,,,,,,,,470.513,471.05,,,,,,4,Plain yogurt,1,,,,0,,,,469.812,470.25,1,0.389,tap,1,1,0,0,0,59,0,59,0,1,,,,,,,
,,,Marie-testing-againandagainandagaaaaain,fr,2026-04-21_10h52.40.007,GNG,2024.2.4,iPhone,58.82352941,https://run.pavlovia.org/LNS/hub/,GNG,,,,,,,,,471.698,472.132,,,,,,49,Chocolate cookies,5,,,,0,,,,471.051,471.439,1,0.326,tap,1,1,0,0,0,60,0,60,0,1,,,,,,,
,,,Marie-testing-againandagainandagaaaaain,fr,2026-04-21_10h52.40.007,GNG,2024.2.4,iPhone,58.82352941,https://run.pavlovia.org/LNS/hub/,GNG,,,,,,,,,472.833,473.601,,,,,,4,Plain yogurt,1,,,,0,,,,472.132,472.573,1,0.375,tap,1,1,0,0,0,61,0,61,0,1,,,,,,,
,,,Marie-testing-againandagainandagaaaaain,fr,2026-04-21_10h52.40.007,GNG,2024.2.4,iPhone,58.82352941,https://run.pavlovia.org/LNS/hub/,GNG,,,,,,,,,474.335,475.07,,,,,,54,Ice cream cone,6,,,,0,,,,473.602,474.077,1,0.41,tap,1,1,0,0,0,62,0,62,0,1,,,,,,,
,,,Marie-testing-againandagainandagaaaaain,fr,2026-04-21_10h52.40.007,GNG,2024.2.4,iPhone,58.82352941,https://run.pavlovia.org/LNS/hub/,GNG,,,,,,,,,475.821,476.505,,,,,,51,Tiramisu,6,,,,0,,,,475.07,475.559,1,0.423,tap,1,1,0,0,0,63,0,63,0,1,,,,,,,
,,,Marie-testing-againandagainandagaaaaain,fr,2026-04-21_10h52.40.007,GNG,2024.2.4,iPhone,58.82352941,https://run.pavlovia.org/LNS/hub/,GNG,,,,,,,,,477.173,477.524,,,,,,41,"Chocolate snacks (e.g. Kinder, Knoppers)",5,,,,0,,,,476.506,476.914,1,0.342,tap,1,1,0,0,0,64,0,64,0,1,,,,,,,
,,,Marie-testing-againandagainandagaaaaain,fr,2026-04-21_10h52.40.007,GNG,2024.2.4,iPhone,58.82352941,https://run.pavlovia.org/LNS/hub/,GNG,,,,,,,,,478.225,478.826,,,,,,10,"Dried fruits (apricot, mango)",1,,,,0,,,,477.524,477.963,1,0.373,tap,1,1,0,0,0,65,0,65,0,1,,,,,,,
,,,Marie-testing-againandagainandagaaaaain,fr,2026-04-21_10h52.40.007,GNG,2024.2.4,iPhone,58.82352941,https://run.pavlovia.org/LNS/hub/,GNG,,,,,,,,,479.527,479.911,,,,,,54,Ice cream cone,6,,,,0,,,,478.826,479.269,1,0.377,tap,1,1,0,0,0,66,0,66,0,1,,,,,,,
,,,Marie-testing-againandagainandagaaaaain,fr,2026-04-21_10h52.40.007,GNG,2024.2.4,iPhone,58.82352941,https://run.pavlovia.org/LNS/hub/,GNG,,,,,,,,,480.596,481.347,,,,,,40,Tresse,4,,,,0,,,,479.911,480.337,1,0.376,tap,1,1,0,0,0,67,0,67,0,1,,,,,,,
,,,Marie-testing-againandagainandagaaaaain,fr,2026-04-21_10h52.40.007,GNG,2024.2.4,iPhone,58.82352941,https://run.pavlovia.org/LNS/hub/,GNG,,,,,,,,,482.048,482.399,,,,,,37,Pain au chocolat,4,,,,0,,,,481.347,481.786,1,0.373,tap,1,1,0,0,0,68,0,68,0,1,,,,,,,
,,,Marie-testing-againandagainandagaaaaain,fr,2026-04-21_10h52.40.007,GNG,2024.2.4,iPhone,58.82352941,https://run.pavlovia.org/LNS/hub/,GNG,,,,,,,,,483.049,483.55,,,,,,49,Chocolate cookies,5,,,,0,,,,482.399,482.785,1,0.32,tap,1,1,0,0,0,69,0,69,0,1,,,,,,,
,,,Marie-testing-againandagainandagaaaaain,fr,2026-04-21_10h52.40.007,GNG,2024.2.4,iPhone,58.82352941,https://run.pavlovia.org/LNS/hub/,GNG,,,,,,,,,484.285,485.036,,,,,,47,Gummy candies,5,,,,0,,,,483.551,484.021,1,0.421,tap,1,1,0,0,0,70,0,70,0,1,,,,,,,
,,,Marie-testing-againandagainandagaaaaain,fr,2026-04-21_10h52.40.007,GNG,2024.2.4,iPhone,58.82352941,https://run.pavlovia.org/LNS/hub/,GNG,,,,,,,,,485.87,486.571,,,,,,59,Cheesecake,6,,,,0,,,,485.036,485.612,1,0.51,tap,1,1,0,0,0,71,0,71,0,1,,,,,,,
,,,Marie-testing-againandagainandagaaaaain,fr,2026-04-21_10h52.40.007,GNG,2024.2.4,iPhone,58.82352941,https://run.pavlovia.org/LNS/hub/,GNG,,,,,,,,,488.424,488.757,,,,,,15,Flute,2,,,,1,,,,486.571,488.173,0,,none,0,0,0,0,1,72,0,72,0,1,,,,,,,
,,,Marie-testing-againandagainandagaaaaain,fr,2026-04-21_10h52.40.007,GNG,2024.2.4,iPhone,58.82352941,https://run.pavlovia.org/LNS/hub/,GNG,,,,,,,,,489.609,490.343,,,,,,41,"Chocolate snacks (e.g. Kinder, Knoppers)",5,,,,0,,,,488.757,489.344,1,0.537,tap,1,1,0,0,0,73,0,73,0,1,,,,,,,
,,,Marie-testing-againandagainandagaaaaain,fr,2026-04-21_10h52.40.007,GNG,2024.2.4,iPhone,58.82352941,https://run.pavlovia.org/LNS/hub/,GNG,,,,,,,,,491.161,491.545,,,,,,54,Ice cream cone,6,,,,0,,,,490.343,490.903,1,0.493,tap,1,1,0,0,0,74,0,74,0,1,,,,,,,
,,,Marie-testing-againandagainandagaaaaain,fr,2026-04-21_10h52.40.007,GNG,2024.2.4,iPhone,58.82352941,https://run.pavlovia.org/LNS/hub/,GNG,,,,,,,,,493.398,493.715,,,,,,9,Healthy cracker (Darvida),1,,,,1,,,,491.546,493.148,0,,none,0,0,0,0,1,75,0,75,0,1,,,,,,,
,,,Marie-testing-againandagainandagaaaaain,fr,2026-04-21_10h52.40.007,GNG,2024.2.4,iPhone,58.82352941,https://run.pavlovia.org/LNS/hub/,GNG,,,,,,,,,494.517,494.967,,,,,,59,Cheesecake,6,,,,0,,,,493.715,494.254,1,0.489,tap,1,1,0,0,0,76,0,76,0,1,,,,,,,
,,,Marie-testing-againandagainandagaaaaain,fr,2026-04-21_10h52.40.007,GNG,2024.2.4,iPhone,58.82352941,https://run.pavlovia.org/LNS/hub/,GNG,,,,,,,,,495.668,496.019,,,,,,10,"Dried fruits (apricot, mango)",1,,,,0,,,,494.967,495.404,1,0.371,tap,1,1,0,0,0,77,0,77,0,1,,,,,,,
,,,Marie-testing-againandagainandagaaaaain,fr,2026-04-21_10h52.40.007,GNG,2024.2.4,iPhone,58.82352941,https://run.pavlovia.org/LNS/hub/,GNG,,,,,,,,,496.72,497.421,,,,,,57,Fondant au chocolat,6,,,,0,,,,496.02,496.457,1,0.372,tap,1,1,0,0,0,78,0,78,0,1,,,,,,,
,,,Marie-testing-againandagainandagaaaaain,fr,2026-04-21_10h52.40.007,GNG,2024.2.4,iPhone,58.82352941,https://run.pavlovia.org/LNS/hub/,GNG,,,,,,,,,498.172,498.757,,,,,,49,Chocolate cookies,5,,,,0,,,,497.422,497.915,1,0.427,tap,1,1,0,0,0,79,0,79,0,1,,,,,,,
,,,Marie-testing-againandagainandagaaaaain,fr,2026-04-21_10h52.40.007,GNG,2024.2.4,iPhone,58.82352941,https://run.pavlovia.org/LNS/hub/,GNG,,,,,,,,,,,,,,,,,,,,,,,,,,,,,,,,,,,,,,,,,3,0,3,0,1,,
,,,Marie-testing-againandagainandagaaaaain,fr,2026-04-21_10h52.40.007,GNG,2024.2.4,iPhone,58.82352941,https://run.pavlovia.org/LNS/hub/,GNG,,,,,607.683,607.974,,,609.827,610.478,,,,,,57,Fondant au chocolat,6,,,,0,,498.757,607.683,607.977,609.576,0,,none,0,0,0,0,1,0,0,0,0,1,,,,,,,
,,,Marie-testing-againandagainandagaaaaain,fr,2026-04-21_10h52.40.007,GNG,2024.2.4,iPhone,58.82352941,https://run.pavlovia.org/LNS/hub/,GNG,,,,,,,,,611.229,611.596,,,,,,17,"Salted nuts (Cashew, peanuts, pistacchios)",2,,,,1,,,,610.478,610.968,1,0.424,tap,1,1,0,0,0,1,0,1,0,1,,,,,,,
,,,Marie-testing-againandagainandagaaaaain,fr,2026-04-21_10h52.40.007,GNG,2024.2.4,iPhone,58.82352941,https://run.pavlovia.org/LNS/hub/,GNG,,,,,,,,,612.304,613.048,,,,,,30,Onion rings,3,,,,1,,,,611.597,612.035,1,0.373,tap,1,1,0,0,0,2,0,2,0,1,,,,,,,
,,,Marie-testing-againandagainandagaaaaain,fr,2026-04-21_10h52.40.007,GNG,2024.2.4,iPhone,58.82352941,https://run.pavlovia.org/LNS/hub/,GNG,,,,,,,,,613.766,614.067,,,,,,15,Flute,2,,,,1,,,,613.049,613.507,1,0.392,tap,1,1,0,0,0,3,0,3,0,1,,,,,,,
,,,Marie-testing-againandagainandagaaaaain,fr,2026-04-21_10h52.40.007,GNG,2024.2.4,iPhone,58.82352941,https://run.pavlovia.org/LNS/hub/,GNG,,,,,,,,,615.919,616.637,,,,,,4,Plain yogurt,1,,,,0,,,,614.067,615.669,0,,none,0,0,0,0,1,4,0,4,0,1,,,,,,,
,,,Marie-testing-againandagainandagaaaaain,fr,2026-04-21_10h52.40.007,GNG,2024.2.4,iPhone,58.82352941,https://run.pavlovia.org/LNS/hub/,GNG,,,,,,,,,617.355,617.772,,,,,,17,"Salted nuts (Cashew, peanuts, pistacchios)",2,,,,1,,,,616.637,617.092,1,0.405,tap,1,1,0,0,0,5,0,5,0,1,,,,,,,
,,,Marie-testing-againandagainandagaaaaain,fr,2026-04-21_10h52.40.007,GNG,2024.2.4,iPhone,58.82352941,https://run.pavlovia.org/LNS/hub/,GNG,,,,,,,,,618.522,619.29,,,,,,9,Healthy cracker (Darvida),1,,,,1,,,,617.772,618.258,1,0.42,tap,1,1,0,0,0,6,0,6,0,1,,,,,,,
,,,Marie-testing-againandagainandagaaaaain,fr,2026-04-21_10h52.40.007,GNG,2024.2.4,iPhone,58.82352941,https://run.pavlovia.org/LNS/hub/,GNG,,,,,,,,,620.041,620.391,,,,,,12,Crisps,2,,,,1,,,,619.291,619.783,1,0.426,tap,1,1,0,0,0,7,0,7,0,1,,,,,,,
,,,Marie-testing-againandagainandagaaaaain,fr,2026-04-21_10h52.40.007,GNG,2024.2.4,iPhone,58.82352941,https://run.pavlovia.org/LNS/hub/,GNG,,,,,,,,,621.076,621.627,,,,,,11,Crisps,2,,,,1,,,,620.392,620.818,1,0.376,tap,1,1,0,0,0,8,0,8,0,1,,,,,,,
,,,Marie-testing-againandagainandagaaaaain,fr,2026-04-21_10h52.40.007,GNG,2024.2.4,iPhone,58.82352941,https://run.pavlovia.org/LNS/hub/,GNG,,,,,,,,,622.361,622.695,,,,,,22,Pizza (vegetarian),3,,,,1,,,,621.627,622.099,1,0.406,tap,1,1,0,0,0,9,0,9,0,1,,,,,,,
,,,Marie-testing-againandagainandagaaaaain,fr,2026-04-21_10h52.40.007,GNG,2024.2.4,iPhone,58.82352941,https://run.pavlovia.org/LNS/hub/,GNG,,,,,,,,,623.446,624.08,,,,,,25,French fries,3,,,,1,,,,622.695,623.187,1,0.426,tap,1,1,0,0,0,10,0,10,0,1,,,,,,,
,,,Marie-testing-againandagainandagaaaaain,fr,2026-04-21_10h52.40.007,GNG,2024.2.4,iPhone,58.82352941,https://run.pavlovia.org/LNS/hub/,GNG,,,,,,,,,624.798,625.582,,,,,,28,Burger (vegetarian),3,,,,1,,,,624.08,624.534,1,0.388,tap,1,1,0,0,0,11,0,11,0,1,,,,,,,
,,,Marie-testing-againandagainandagaaaaain,fr,2026-04-21_10h52.40.007,GNG,2024.2.4,iPhone,58.82352941,https://run.pavlovia.org/LNS/hub/,GNG,,,,,,,,,626.366,626.85,,,,,,22,Pizza (vegetarian),3,,,,1,,,,625.582,626.103,1,0.454,tap,1,1,0,0,0,12,0,12,0,1,,,,,,,
,,,Marie-testing-againandagainandagaaaaain,fr,2026-04-21_10h52.40.007,GNG,2024.2.4,iPhone,58.82352941,https://run.pavlovia.org/LNS/hub/,GNG,,,,,,,,,627.584,628.319,,,,,,35,Foccacia,4,,,,1,,,,626.85,627.318,1,0.402,tap,1,1,0,0,0,13,0,13,0,1,,,,,,,
,,,Marie-testing-againandagainandagaaaaain,fr,2026-04-21_10h52.40.007,GNG,2024.2.4,iPhone,58.82352941,https://run.pavlovia.org/LNS/hub/,GNG,,,,,,,,,629.02,629.42,,,,,,35,Foccacia,4,,,,1,,,,628.319,628.756,1,0.371,tap,1,1,0,0,0,14,0,14,0,1,,,,,,,
,,,Marie-testing-againandagainandagaaaaain,fr,2026-04-21_10h52.40.007,GNG,2024.2.4,iPhone,58.82352941,https://run.pavlovia.org/LNS/hub/,GNG,,,,,,,,,630.054,630.405,,,,,,12,Crisps,2,,,,1,,,,629.42,629.79,1,0.303,tap,1,1,0,0,0,15,0,15,0,1,,,,,,,
,,,Marie-testing-againandagainandagaaaaain,fr,2026-04-21_10h52.40.007,GNG,2024.2.4,iPhone,58.82352941,https://run.pavlovia.org/LNS/hub/,GNG,,,,,,,,,631.089,631.807,,,,,,25,French fries,3,,,,1,,,,630.405,630.83,1,0.359,tap,1,1,0,0,0,16,0,16,0,1,,,,,,,
,,,Marie-testing-againandagainandagaaaaain,fr,2026-04-21_10h52.40.007,GNG,2024.2.4,iPhone,58.82352941,https://run.pavlovia.org/LNS/hub/,GNG,,,,,,,,,633.659,634.377,,,,,,40,Tresse,4,,,,0,,,,631.807,633.408,0,,none,0,0,0,0,1,17,0,17,0,1,,,,,,,
,,,Marie-testing-againandagainandagaaaaain,fr,2026-04-21_10h52.40.007,GNG,2024.2.4,iPhone,58.82352941,https://run.pavlovia.org/LNS/hub/,GNG,,,,,,,,,635.111,635.812,,,,,,11,Crisps,2,,,,1,,,,634.378,634.852,1,0.409,tap,1,1,0,0,0,18,0,18,0,1,,,,,,,
,,,Marie-testing-againandagainandagaaaaain,fr,2026-04-21_10h52.40.007,GNG,2024.2.4,iPhone,58.82352941,https://run.pavlovia.org/LNS/hub/,GNG,,,,,,,,,636.563,636.93,,,,,,12,Crisps,2,,,,1,,,,635.813,636.306,1,0.428,tap,1,1,0,0,0,19,0,19,0,1,,,,,,,
,,,Marie-testing-againandagainandagaaaaain,fr,2026-04-21_10h52.40.007,GNG,2024.2.4,iPhone,58.82352941,https://run.pavlovia.org/LNS/hub/,GNG,,,,,,,,,637.665,638.332,,,,,,28,Burger (vegetarian),3,,,,1,,,,636.93,637.405,1,0.425,tap,1,1,0,0,0,20,0,20,0,1,,,,,,,
,,,Marie-testing-againandagainandagaaaaain,fr,2026-04-21_10h52.40.007,GNG,2024.2.4,iPhone,58.82352941,https://run.pavlovia.org/LNS/hub/,GNG,,,,,,,,,640.202,640.886,,,,,,31,Croissant,4,,,,0,,,,638.333,639.936,0,,none,0,0,0,0,1,21,0,21,0,1,,,,,,,
,,,Marie-testing-againandagainandagaaaaain,fr,2026-04-21_10h52.40.007,GNG,2024.2.4,iPhone,58.82352941,https://run.pavlovia.org/LNS/hub/,GNG,,,,,,,,,641.62,642.354,,,,,,9,Healthy cracker (Darvida),1,,,,1,,,,640.887,641.357,1,0.404,tap,1,1,0,0,0,22,0,22,0,1,,,,,,,
,,,Marie-testing-againandagainandagaaaaain,fr,2026-04-21_10h52.40.007,GNG,2024.2.4,iPhone,58.82352941,https://run.pavlovia.org/LNS/hub/,GNG,,,,,,,,,643.021,643.389,,,,,,15,Flute,2,,,,1,,,,642.355,642.762,1,0.358,tap,1,1,0,0,0,23,0,23,0,1,,,,,,,
,,,Marie-testing-againandagainandagaaaaain,fr,2026-04-21_10h52.40.007,GNG,2024.2.4,iPhone,58.82352941,https://run.pavlovia.org/LNS/hub/,GNG,,,,,,,,,644.14,644.59,,,,,,35,Foccacia,4,,,,1,,,,643.389,643.881,1,0.426,tap,1,1,0,0,0,24,0,24,0,1,,,,,,,
,,,Marie-testing-againandagainandagaaaaain,fr,2026-04-21_10h52.40.007,GNG,2024.2.4,iPhone,58.82352941,https://run.pavlovia.org/LNS/hub/,GNG,,,,,,,,,646.459,646.959,,,,,,47,Gummy candies,5,,,,0,,,,644.59,646.192,0,,none,0,0,0,0,1,25,0,25,0,1,,,,,,,
,,,Marie-testing-againandagainandagaaaaain,fr,2026-04-21_10h52.40.007,GNG,2024.2.4,iPhone,58.82352941,https://run.pavlovia.org/LNS/hub/,GNG,,,,,,,,,647.66,648.194,,,,,,12,Crisps,2,,,,1,,,,646.96,647.397,1,0.387,tap,1,1,0,0,0,26,0,26,0,1,,,,,,,
,,,Marie-testing-againandagainandagaaaaain,fr,2026-04-21_10h52.40.007,GNG,2024.2.4,iPhone,58.82352941,https://run.pavlovia.org/LNS/hub/,GNG,,,,,,,,,648.862,649.412,,,,,,22,Pizza (vegetarian),3,,,,1,,,,648.195,648.599,1,0.355,tap,1,1,0,0,0,27,0,27,0,1,,,,,,,
,,,Marie-testing-againandagainandagaaaaain,fr,2026-04-21_10h52.40.007,GNG,2024.2.4,iPhone,58.82352941,https://run.pavlovia.org/LNS/hub/,GNG,,,,,,,,,650.08,650.447,,,,,,28,Burger (vegetarian),3,,,,1,,,,649.413,649.816,1,0.337,tap,1,1,0,0,0,28,0,28,0,1,,,,,,,
,,,Marie-testing-againandagainandagaaaaain,fr,2026-04-21_10h52.40.007,GNG,2024.2.4,iPhone,58.82352941,https://run.pavlovia.org/LNS/hub/,GNG,,,,,,,,,651.131,651.748,,,,,,28,Burger (vegetarian),3,,,,1,,,,650.447,650.868,1,0.355,tap,1,1,0,0,0,29,0,29,0,1,,,,,,,
,,,Marie-testing-againandagainandagaaaaain,fr,2026-04-21_10h52.40.007,GNG,2024.2.4,iPhone,58.82352941,https://run.pavlovia.org/LNS/hub/,GNG,,,,,,,,,652.449,653.083,,,,,,17,"Salted nuts (Cashew, peanuts, pistacchios)",2,,,,1,,,,651.749,652.187,1,0.389,tap,1,1,0,0,0,30,0,30,0,1,,,,,,,
,,,Marie-testing-againandagainandagaaaaain,fr,2026-04-21_10h52.40.007,GNG,2024.2.4,iPhone,58.82352941,https://run.pavlovia.org/LNS/hub/,GNG,,,,,,,,,653.801,654.151,,,,,,15,Flute,2,,,,1,,,,653.084,653.543,1,0.393,tap,1,1,0,0,0,31,0,31,0,1,,,,,,,
,,,Marie-testing-againandagainandagaaaaain,fr,2026-04-21_10h52.40.007,GNG,2024.2.4,iPhone,58.82352941,https://run.pavlovia.org/LNS/hub/,GNG,,,,,,,,,655.052,655.403,,,,,,5,Bell pepper,1,,,,1,,,,654.152,654.792,1,0.591,tap,1,1,0,0,0,32,0,32,0,1,,,,,,,
,,,Marie-testing-againandagainandagaaaaain,fr,2026-04-21_10h52.40.007,GNG,2024.2.4,iPhone,58.82352941,https://run.pavlovia.org/LNS/hub/,GNG,,,,,,,,,656.121,656.588,,,,,,11,Crisps,2,,,,1,,,,655.403,655.857,1,0.404,tap,1,1,0,0,0,33,0,33,0,1,,,,,,,
,,,Marie-testing-againandagainandagaaaaain,fr,2026-04-21_10h52.40.007,GNG,2024.2.4,iPhone,58.82352941,https://run.pavlovia.org/LNS/hub/,GNG,,,,,,,,,658.44,658.74,,,,,,51,Tiramisu,6,,,,0,,,,656.588,658.19,0,,none,0,0,0,0,1,34,0,34,0,1,,,,,,,
,,,Marie-testing-againandagainandagaaaaain,fr,2026-04-21_10h52.40.007,GNG,2024.2.4,iPhone,58.82352941,https://run.pavlovia.org/LNS/hub/,GNG,,,,,,,,,659.508,660.193,,,,,,25,French fries,3,,,,1,,,,658.741,659.245,1,0.438,tap,1,1,0,0,0,35,0,35,0,1,,,,,,,
,,,Marie-testing-againandagainandagaaaaain,fr,2026-04-21_10h52.40.007,GNG,2024.2.4,iPhone,58.82352941,https://run.pavlovia.org/LNS/hub/,GNG,,,,,,,,,660.927,661.332,,,,,,30,Onion rings,3,,,,1,,,,660.193,660.663,1,0.404,tap,1,1,0,0,0,36,0,36,0,1,,,,,,,
,,,Marie-testing-againandagainandagaaaaain,fr,2026-04-21_10h52.40.007,GNG,2024.2.4,iPhone,58.82352941,https://run.pavlovia.org/LNS/hub/,GNG,,,,,,,,,661.995,662.579,,,,,,30,Onion rings,3,,,,1,,,,661.332,661.732,1,0.338,tap,1,1,0,0,0,37,0,37,0,1,,,,,,,
,,,Marie-testing-againandagainandagaaaaain,fr,2026-04-21_10h52.40.007,GNG,2024.2.4,iPhone,58.82352941,https://run.pavlovia.org/LNS/hub/,GNG,,,,,,,,,663.297,663.815,,,,,,28,Burger (vegetarian),3,,,,1,,,,662.58,663.033,1,0.387,tap,1,1,0,0,0,38,0,38,0,1,,,,,,,
,,,Marie-testing-againandagainandagaaaaain,fr,2026-04-21_10h52.40.007,GNG,2024.2.4,iPhone,58.82352941,https://run.pavlovia.org/LNS/hub/,GNG,,,,,,,,,665.667,665.985,,,,,,59,Cheesecake,6,,,,0,,,,663.815,665.417,0,,none,0,0,0,0,1,39,0,39,0,1,,,,,,,
,,,Marie-testing-againandagainandagaaaaain,fr,2026-04-21_10h52.40.007,GNG,2024.2.4,iPhone,58.82352941,https://run.pavlovia.org/LNS/hub/,GNG,,,,,,,,,667.838,668.639,,,,,,49,Chocolate cookies,5,,,,0,,,,665.985,667.587,0,,none,0,0,0,0,1,40,0,40,0,1,,,,,,,
,,,Marie-testing-againandagainandagaaaaain,fr,2026-04-21_10h52.40.007,GNG,2024.2.4,iPhone,58.82352941,https://run.pavlovia.org/LNS/hub/,GNG,,,,,,,,,669.374,669.841,,,,,,30,Onion rings,3,,,,1,,,,668.639,669.111,1,0.405,tap,1,1,0,0,0,41,0,41,0,1,,,,,,,
,,,Marie-testing-againandagainandagaaaaain,fr,2026-04-21_10h52.40.007,GNG,2024.2.4,iPhone,58.82352941,https://run.pavlovia.org/LNS/hub/,GNG,,,,,,,,,671.693,672.044,,,,,,40,Tresse,4,,,,0,,,,669.842,671.443,0,,none,0,0,0,0,1,42,0,42,0,1,,,,,,,
,,,Marie-testing-againandagainandagaaaaain,fr,2026-04-21_10h52.40.007,GNG,2024.2.4,iPhone,58.82352941,https://run.pavlovia.org/LNS/hub/,GNG,,,,,,,,,672.828,673.379,,,,,,35,Foccacia,4,,,,1,,,,672.044,672.567,1,0.456,tap,1,1,0,0,0,43,0,43,0,1,,,,,,,
,,,Marie-testing-againandagainandagaaaaain,fr,2026-04-21_10h52.40.007,GNG,2024.2.4,iPhone,58.82352941,https://run.pavlovia.org/LNS/hub/,GNG,,,,,,,,,674.08,674.664,,,,,,25,French fries,3,,,,1,,,,673.38,673.817,1,0.388,tap,1,1,0,0,0,44,0,44,0,1,,,,,,,
,,,Marie-testing-againandagainandagaaaaain,fr,2026-04-21_10h52.40.007,GNG,2024.2.4,iPhone,58.82352941,https://run.pavlovia.org/LNS/hub/,GNG,,,,,,,,,676.516,677.201,,,,,,48,Sour candies,5,,,,0,,,,674.665,676.266,0,,none,0,0,0,0,1,45,0,45,0,1,,,,,,,
,,,Marie-testing-againandagainandagaaaaain,fr,2026-04-21_10h52.40.007,GNG,2024.2.4,iPhone,58.82352941,https://run.pavlovia.org/LNS/hub/,GNG,,,,,,,,,677.969,678.419,,,,,,9,Healthy cracker (Darvida),1,,,,1,,,,677.202,677.707,1,0.439,tap,1,1,0,0,0,46,0,46,0,1,,,,,,,
,,,Marie-testing-againandagainandagaaaaain,fr,2026-04-21_10h52.40.007,GNG,2024.2.4,iPhone,58.82352941,https://run.pavlovia.org/LNS/hub/,GNG,,,,,,,,,679.204,679.788,,,,,,22,Pizza (vegetarian),3,,,,1,,,,678.42,678.939,1,0.453,tap,1,1,0,0,0,47,0,47,0,1,,,,,,,
,,,Marie-testing-againandagainandagaaaaain,fr,2026-04-21_10h52.40.007,GNG,2024.2.4,iPhone,58.82352941,https://run.pavlovia.org/LNS/hub/,GNG,,,,,,,,,680.572,681.107,,,,,,5,Bell pepper,1,,,,1,,,,679.788,680.312,1,0.458,tap,1,1,0,0,0,48,0,48,0,1,,,,,,,
,,,Marie-testing-againandagainandagaaaaain,fr,2026-04-21_10h52.40.007,GNG,2024.2.4,iPhone,58.82352941,https://run.pavlovia.org/LNS/hub/,GNG,,,,,,,,,681.841,682.508,,,,,,30,Onion rings,3,,,,1,,,,681.107,681.578,1,0.405,tap,1,1,0,0,0,49,0,49,0,1,,,,,,,
,,,Marie-testing-againandagainandagaaaaain,fr,2026-04-21_10h52.40.007,GNG,2024.2.4,iPhone,58.82352941,https://run.pavlovia.org/LNS/hub/,GNG,,,,,,,,,683.126,683.593,,,,,,11,Crisps,2,,,,1,,,,682.509,682.862,1,0.304,tap,1,1,0,0,0,50,0,50,0,1,,,,,,,
,,,Marie-testing-againandagainandagaaaaain,fr,2026-04-21_10h52.40.007,GNG,2024.2.4,iPhone,58.82352941,https://run.pavlovia.org/LNS/hub/,GNG,,,,,,,,,685.453,686.181,,,,,,37,Pain au chocolat,4,,,,0,,,,683.594,685.196,0,,none,0,0,0,0,1,51,0,51,0,1,,,,,,,
,,,Marie-testing-againandagainandagaaaaain,fr,2026-04-21_10h52.40.007,GNG,2024.2.4,iPhone,58.82352941,https://run.pavlovia.org/LNS/hub/,GNG,,,,,,,,,686.999,687.699,,,,,,5,Bell pepper,1,,,,1,,,,686.182,686.737,1,0.49,tap,1,1,0,0,0,52,0,52,0,1,,,,,,,
,,,Marie-testing-againandagainandagaaaaain,fr,2026-04-21_10h52.40.007,GNG,2024.2.4,iPhone,58.82352941,https://run.pavlovia.org/LNS/hub/,GNG,,,,,,,,,688.434,688.818,,,,,,5,Bell pepper,1,,,,1,,,,687.7,688.171,1,0.422,tap,1,1,0,0,0,53,0,53,0,1,,,,,,,
,,,Marie-testing-againandagainandagaaaaain,fr,2026-04-21_10h52.40.007,GNG,2024.2.4,iPhone,58.82352941,https://run.pavlovia.org/LNS/hub/,GNG,,,,,,,,,689.602,690.337,,,,,,11,Crisps,2,,,,1,,,,688.818,689.339,1,0.455,tap,1,1,0,0,0,54,0,54,0,1,,,,,,,
,,,Marie-testing-againandagainandagaaaaain,fr,2026-04-21_10h52.40.007,GNG,2024.2.4,iPhone,58.82352941,https://run.pavlovia.org/LNS/hub/,GNG,,,,,,,,,691.088,691.789,,,,,,5,Bell pepper,1,,,,1,,,,690.337,690.826,1,0.423,tap,1,1,0,0,0,55,0,55,0,1,,,,,,,
,,,Marie-testing-againandagainandagaaaaain,fr,2026-04-21_10h52.40.007,GNG,2024.2.4,iPhone,58.82352941,https://run.pavlovia.org/LNS/hub/,GNG,,,,,,,,,692.523,693.007,,,,,,15,Flute,2,,,,1,,,,691.789,692.263,1,0.408,tap,1,1,0,0,0,56,0,56,0,1,,,,,,,
,,,Marie-testing-againandagainandagaaaaain,fr,2026-04-21_10h52.40.007,GNG,2024.2.4,iPhone,58.82352941,https://run.pavlovia.org/LNS/hub/,GNG,,,,,,,,,694.859,695.577,,,,,,41,"Chocolate snacks (e.g. Kinder, Knoppers)",5,,,,0,,,,693.007,694.609,0,,none,0,0,0,0,1,57,0,57,0,1,,,,,,,
,,,Marie-testing-againandagainandagaaaaain,fr,2026-04-21_10h52.40.007,GNG,2024.2.4,iPhone,58.82352941,https://run.pavlovia.org/LNS/hub/,GNG,,,,,,,,,696.294,696.929,,,,,,17,"Salted nuts (Cashew, peanuts, pistacchios)",2,,,,1,,,,695.577,696.031,1,0.387,tap,1,1,0,0,0,58,0,58,0,1,,,,,,,
,,,Marie-testing-againandagainandagaaaaain,fr,2026-04-21_10h52.40.007,GNG,2024.2.4,iPhone,58.82352941,https://run.pavlovia.org/LNS/hub/,GNG,,,,,,,,,697.697,698.264,,,,,,22,Pizza (vegetarian),3,,,,1,,,,696.929,697.438,1,0.443,tap,1,1,0,0,0,59,0,59,0,1,,,,,,,
